acceleration_x,acceleration_y,acceleration_z,gyroscope_x,gyroscope_y,gyroscope_z,timestamp,label
18992,-1136,3468,41,30,-228,2025-01-27 13:55:18,0.0
18880,-1108,3656,53,50,-202,2025-01-27 13:55:18,0.0
18732,-940,3440,90,-12,-209,2025-01-27 13:55:18,0.0
18888,-1108,3544,82,43,-220,2025-01-27 13:55:18,0.0
18768,-1124,3672,125,124,-214,2025-01-27 13:55:18,0.0
18900,-1196,3756,88,143,-231,2025-01-27 13:55:18,0.0
18936,-1160,3580,122,126,-227,2025-01-27 13:55:18,0.0
18832,-1188,3476,122,45,-209,2025-01-27 13:55:18,0.0
18848,-1168,3472,117,0,-171,2025-01-27 13:55:18,0.0
18944,-1004,3628,144,69,-184,2025-01-27 13:55:18,0.0
18932,-1144,3604,162,-41,-201,2025-01-27 13:55:18,0.0
18840,-1056,3612,169,-3,-197,2025-01-27 13:55:18,0.0
18908,-1224,3492,156,131,-219,2025-01-27 13:55:18,0.0
18924,-1180,3516,142,209,-233,2025-01-27 13:55:18,0.0
18884,-1228,3560,115,202,-213,2025-01-27 13:55:18,0.0
18852,-1216,3560,97,132,-229,2025-01-27 13:55:18,0.0
18896,-1132,3404,76,63,-223,2025-01-27 13:55:18,0.0
18960,-1112,3404,59,108,-257,2025-01-27 13:55:18,0.0
18928,-1164,3528,61,115,-250,2025-01-27 13:55:18,0.0
18844,-1104,3404,35,97,-248,2025-01-27 13:55:19,0.0
18856,-1140,3600,77,47,-224,2025-01-27 13:55:19,0.0
18996,-1056,3488,53,50,-220,2025-01-27 13:55:19,0.0
18924,-1108,3452,73,37,-236,2025-01-27 13:55:19,0.0
18972,-1056,3600,101,3,-244,2025-01-27 13:55:19,0.0
18980,-1080,3404,86,-15,-280,2025-01-27 13:55:19,0.0
18928,-1208,3416,84,-121,-261,2025-01-27 13:55:19,0.0
18852,-1108,3404,71,-121,-239,2025-01-27 13:55:19,0.0
18796,-1212,3472,101,-46,-244,2025-01-27 13:55:19,0.0
18768,-1132,3248,51,54,-264,2025-01-27 13:55:19,0.0
18700,-1104,3348,18,122,-245,2025-01-27 13:55:19,0.0
18816,-1028,3572,15,233,-282,2025-01-27 13:55:19,0.0
18804,-1156,3512,38,249,-292,2025-01-27 13:55:19,0.0
18952,-1092,3588,-26,195,-282,2025-01-27 13:55:19,0.0
18904,-1168,3576,-26,63,-303,2025-01-27 13:55:19,0.0
18880,-1080,3512,-56,121,-268,2025-01-27 13:55:19,0.0
18880,-920,3560,-60,153,-247,2025-01-27 13:55:19,0.0
18876,-1036,3648,-118,-84,-237,2025-01-27 13:55:19,0.0
19008,-1056,3784,-142,-143,-273,2025-01-27 13:55:19,0.0
18900,-1044,3536,-176,-91,-320,2025-01-27 13:55:19,0.0
18824,-1144,3468,-278,-94,-389,2025-01-27 13:55:19,0.0
18740,-904,3340,-492,-165,-513,2025-01-27 13:55:19,0.0
18688,-800,2908,-765,-182,-593,2025-01-27 13:55:19,0.0
18780,-312,2984,-1312,363,-984,2025-01-27 13:55:19,0.0
19724,316,4344,-1184,2252,-1935,2025-01-27 13:55:19,0.0
20336,900,4728,-895,4424,-2761,2025-01-27 13:55:19,0.0
19884,396,4288,-431,5432,-2901,2025-01-27 13:55:19,0.0
18852,412,3672,-184,3235,-1983,2025-01-27 13:55:19,0.0
18008,-136,3704,429,-621,-796,2025-01-27 13:55:19,0.0
18072,-12,2876,-7,-3163,-154,2025-01-27 13:55:19,0.0
18176,432,2016,-579,-1924,-593,2025-01-27 13:55:19,0.0
17068,528,1608,-578,504,-382,2025-01-27 13:55:19,0.0
17872,840,2928,311,2079,129,2025-01-27 13:55:19,0.0
18632,836,2812,617,2075,358,2025-01-27 13:55:19,0.0
19296,484,3184,839,1612,523,2025-01-27 13:55:19,0.0
19404,260,2944,1093,1295,779,2025-01-27 13:55:19,0.0
19340,504,3020,1304,965,1023,2025-01-27 13:55:19,0.0
18940,848,2692,1222,274,1439,2025-01-27 13:55:19,0.0
19008,576,3288,1245,-547,1830,2025-01-27 13:55:19,0.0
18812,36,3764,1470,-1515,2308,2025-01-27 13:55:19,0.0
18264,-432,4120,1535,-2093,2709,2025-01-27 13:55:19,0.0
17748,-1252,4592,927,-2329,2907,2025-01-27 13:55:19,0.0
17316,-2912,4576,86,-2775,2685,2025-01-27 13:55:19,0.0
16932,-4600,2980,-878,-3116,1871,2025-01-27 13:55:19,0.0
17300,-5092,1372,-1744,-2119,501,2025-01-27 13:55:19,0.0
17724,-3440,1408,-2238,1755,-364,2025-01-27 13:55:19,0.0
19020,-1920,2284,-1707,6233,-263,2025-01-27 13:55:19,0.0
20676,-1096,1332,-1338,8779,509,2025-01-27 13:55:19,0.0
22000,-304,620,-1148,7489,1533,2025-01-27 13:55:19,0.0
22548,-228,1180,-221,3006,2278,2025-01-27 13:55:19,0.0
22252,-544,1964,1155,-2045,2828,2025-01-27 13:55:19,0.0
20700,-1016,2420,2235,-5210,3355,2025-01-27 13:55:19,0.0
18732,-1304,2680,2872,-7129,3550,2025-01-27 13:55:19,0.0
16876,-1420,2860,3359,-8174,3309,2025-01-27 13:55:19,0.0
15836,-1832,2156,3800,-7723,2747,2025-01-27 13:55:19,0.0
15864,-2080,736,4162,-5187,2357,2025-01-27 13:55:19,0.0
16732,-2004,-88,4451,-1689,1898,2025-01-27 13:55:19,0.0
17752,-1984,-168,4711,1053,1334,2025-01-27 13:55:19,0.0
18980,-1816,88,5322,1448,811,2025-01-27 13:55:19,0.0
19840,-1488,-36,5658,-611,460,2025-01-27 13:55:19,0.0
20028,-1168,60,5690,-3625,-18,2025-01-27 13:55:19,0.0
18792,-1024,-296,5673,-6038,-406,2025-01-27 13:55:19,0.0
17700,-1224,-220,5844,-5982,-674,2025-01-27 13:55:20,0.0
16508,-2100,-116,6389,-2967,-572,2025-01-27 13:55:20,0.0
16524,-2664,552,7318,76,135,2025-01-27 13:55:20,0.0
17376,-2808,52,8334,1369,1012,2025-01-27 13:55:20,0.0
18504,-3072,-620,8852,1183,1340,2025-01-27 13:55:20,0.0
18700,-3196,-1088,8886,287,1256,2025-01-27 13:55:20,0.0
17672,-2976,-1116,9076,137,1297,2025-01-27 13:55:20,0.0
17524,-2948,-1036,9840,341,1648,2025-01-27 13:55:20,0.0
18252,-3412,-752,10450,737,1986,2025-01-27 13:55:20,0.0
19344,-4476,1868,11176,2522,3545,2025-01-27 13:55:20,0.0
20276,-5908,2848,11778,4050,5522,2025-01-27 13:55:20,0.0
21316,-6780,376,10241,3561,7342,2025-01-27 13:55:20,0.0
22540,-6812,-236,6909,513,8005,2025-01-27 13:55:20,0.0
22976,-7004,1656,4807,-3575,7994,2025-01-27 13:55:20,0.0
23108,-6700,1768,3643,-7452,7336,2025-01-27 13:55:20,0.0
24376,-6732,2196,2339,-8826,5134,2025-01-27 13:55:20,0.0
24440,-6144,3300,1232,-6767,1522,2025-01-27 13:55:20,0.0
22436,-4784,5960,642,-4776,-1117,2025-01-27 13:55:20,0.0
21008,-3068,7288,845,-4359,-2129,2025-01-27 13:55:20,
19648,-1316,7320,1226,-4129,-2505,2025-01-27 13:55:20,0.0
18360,-468,6168,1549,-3240,-2749,2025-01-27 13:55:20,0.0
17368,564,3340,1852,-565,-3054,2025-01-27 13:55:20,0.0
17976,1328,1884,1994,2962,-3091,2025-01-27 13:55:20,0.0
19636,1128,3120,2261,5529,-3683,2025-01-27 13:55:20,0.0
20760,600,3648,3062,6080,-4865,2025-01-27 13:55:20,0.0
20560,-104,3244,3306,4900,-5396,2025-01-27 13:55:20,0.0
20948,-776,3128,3533,3703,-5789,2025-01-27 13:55:20,0.0
20884,-908,2424,3319,2418,-6702,2025-01-27 13:55:20,0.0
19404,-1128,1788,2612,164,-7292,2025-01-27 13:55:20,0.0
17624,-1220,1952,2176,-2809,-7332,2025-01-27 13:55:20,0.0
15244,-1132,1576,2035,-5562,-6861,2025-01-27 13:55:20,0.0
14236,-744,1456,2110,-5688,-6412,2025-01-27 13:55:20,0.0
13980,-168,628,2262,-3353,-6428,2025-01-27 13:55:20,0.0
13840,-152,-880,2014,-627,-5924,2025-01-27 13:55:20,0.0
13468,-20,-180,1613,1374,-4710,2025-01-27 13:55:20,0.0
14588,-296,292,1554,2161,-3604,2025-01-27 13:55:20,0.0
15456,120,268,1637,1896,-2227,2025-01-27 13:55:20,0.0
15716,680,132,1942,1401,-1264,2025-01-27 13:55:20,0.0
15588,1244,-356,2210,784,-64,2025-01-27 13:55:20,0.0
16308,1344,-1420,2411,492,577,2025-01-27 13:55:20,0.0
16924,1448,-1908,1964,182,707,2025-01-27 13:55:20,0.0
17564,1716,-1232,1459,-559,487,2025-01-27 13:55:20,0.0
18292,1752,-344,741,-1117,292,2025-01-27 13:55:20,0.0
19416,1708,-24,-384,-640,-117,2025-01-27 13:55:20,0.0
21400,1264,-324,-1260,718,-989,2025-01-27 13:55:20,0.0
23852,672,-352,-1952,2170,-2260,2025-01-27 13:55:20,0.0
25256,-148,-244,-2409,2795,-3686,2025-01-27 13:55:20,0.0
24020,756,236,-2040,1338,-4064,2025-01-27 13:55:20,0.0
23316,1740,-2180,-1292,92,-3564,2025-01-27 13:55:20,0.0
23296,1772,-4736,-1475,-439,-3367,2025-01-27 13:55:20,0.0
24912,3028,-2904,-1738,292,-3611,2025-01-27 13:55:20,0.0
24880,4552,-772,-2182,2169,-3866,2025-01-27 13:55:20,0.0
24040,6496,2164,-1862,1697,-2347,2025-01-27 13:55:20,0.0
23608,6508,5612,838,-1299,-738,2025-01-27 13:55:20,0.0
21888,5868,7932,4862,-7297,264,2025-01-27 13:55:20,0.0
19592,3148,8540,7407,-11364,36,2025-01-27 13:55:20,0.0
16532,1052,8436,8986,-11175,-1324,2025-01-27 13:55:20,0.0
13392,-1144,7908,8161,-6667,-1656,2025-01-27 13:55:20,0.0
11972,-2568,6872,6286,235,47,2025-01-27 13:55:20,0.0
14860,-3076,5668,4881,8258,2101,2025-01-27 13:55:21,0.0
17148,-2452,5140,4545,12581,3335,2025-01-27 13:55:21,0.0
19884,-564,5056,5103,12876,4278,2025-01-27 13:55:21,0.0
21388,1460,5916,6460,10918,5211,2025-01-27 13:55:21,0.0
21820,3016,4752,8022,7050,6466,2025-01-27 13:55:21,0.0
20896,1392,4868,9686,2026,7321,2025-01-27 13:55:21,0.0
18976,-640,4732,10597,-2971,7226,2025-01-27 13:55:21,0.0
17528,-2416,3940,10952,-7057,5929,2025-01-27 13:55:21,0.0
15212,-2944,1932,9749,-6052,3579,2025-01-27 13:55:21,0.0
11664,-3276,2096,7508,-3145,2656,2025-01-27 13:55:21,0.0
12792,-4092,1788,6432,473,2917,2025-01-27 13:55:21,0.0
12228,-3584,3496,6777,3334,3626,2025-01-27 13:55:21,0.0
14916,-2972,2592,7048,5275,3920,2025-01-27 13:55:21,0.0
16252,-1956,1924,6668,5555,3528,2025-01-27 13:55:21,0.0
17516,-1180,1172,5964,3566,2520,2025-01-27 13:55:21,0.0
17944,-1600,1348,5345,969,881,2025-01-27 13:55:21,0.0
17220,-1680,1196,4980,462,-452,2025-01-27 13:55:21,0.0
16540,-1880,648,4897,727,-1076,2025-01-27 13:55:21,0.0
17020,-1556,508,4822,1232,-1444,2025-01-27 13:55:21,0.0
17356,-1808,256,4723,1083,-1355,2025-01-27 13:55:21,0.0
18832,-2424,384,4678,738,-1018,2025-01-27 13:55:21,0.0
21344,-2356,952,4612,613,-1139,2025-01-27 13:55:21,0.0
21956,-2548,1440,5003,-357,-1380,2025-01-27 13:55:21,0.0
20880,-1948,1776,5222,-2406,-849,2025-01-27 13:55:21,0.0
20244,-1948,1476,5078,-3222,94,2025-01-27 13:55:21,0.0
19704,-3360,188,4969,-2113,1460,2025-01-27 13:55:21,0.0
20260,-5828,-1656,5418,1240,3389,2025-01-27 13:55:21,0.0
22256,-6272,-3976,5954,4883,5135,2025-01-27 13:55:21,0.0
25036,-3764,-2816,5396,6733,5173,2025-01-27 13:55:21,0.0
26132,-1792,3204,4590,6298,5062,2025-01-27 13:55:21,0.0
24656,-3428,5532,3653,2129,5456,2025-01-27 13:55:21,0.0
24672,-8028,5768,-238,-2777,5806,2025-01-27 13:55:21,0.0
26788,-10584,8572,-2975,-4974,3163,2025-01-27 13:55:21,0.0
24576,-8544,7612,-5067,-5400,-898,2025-01-27 13:55:21,0.0
18980,-5956,9628,-7776,-6654,-1435,2025-01-27 13:55:21,0.0
17176,-3040,11744,-7842,-6253,-709,2025-01-27 13:55:21,0.0
17468,1408,9928,-5834,-3331,-1019,2025-01-27 13:55:21,0.0
17640,5004,7096,-3787,1103,-2002,2025-01-27 13:55:21,0.0
19656,6156,4184,-2645,5344,-3683,2025-01-27 13:55:21,0.0
21124,3004,4292,-2140,5752,-5347,2025-01-27 13:55:21,0.0
20576,-904,4452,-1084,3376,-6482,2025-01-27 13:55:21,0.0
18112,-3340,4400,-699,159,-5694,2025-01-27 13:55:21,0.0
16060,-4228,4356,-689,-1960,-4956,2025-01-27 13:55:21,0.0
14248,-3500,2684,-1868,-3270,-5420,2025-01-27 13:55:21,0.0
13040,-2532,1304,-4170,-3917,-5968,2025-01-27 13:55:21,0.0
11492,-1188,3144,-5156,-4132,-5922,2025-01-27 13:55:21,0.0
11988,244,2872,-5318,-3661,-5441,2025-01-27 13:55:21,0.0
13176,1460,1464,-5672,-2182,-4373,2025-01-27 13:55:21,0.0
15128,1564,1532,-6047,224,-3657,2025-01-27 13:55:21,0.0
16284,712,2896,-5867,1593,-3119,2025-01-27 13:55:21,0.0
15880,316,3280,-5017,767,-2319,2025-01-27 13:55:21,0.0
14956,380,2532,-3677,-1037,-979,2025-01-27 13:55:21,0.0
14896,268,728,-2479,-1841,597,2025-01-27 13:55:21,0.0
14496,288,-752,-2147,-1558,1785,2025-01-27 13:55:21,0.0
14684,8,-1088,-2819,-851,2209,2025-01-27 13:55:21,0.0
15136,-280,-576,-3334,476,2471,2025-01-27 13:55:21,0.0
16860,-328,-744,-3628,2103,2947,2025-01-27 13:55:21,0.0
19788,-172,352,-4342,2339,3272,2025-01-27 13:55:21,0.0
24472,128,952,-5254,1916,1527,2025-01-27 13:55:21,0.0
26848,-560,1748,-5956,1340,-2238,2025-01-27 13:55:21,
26612,-1240,528,-5699,640,-4580,2025-01-27 13:55:21,0.0
27944,-556,-240,-2959,2650,-7151,2025-01-27 13:55:21,0.0
24340,296,-4304,-1642,2777,-7522,2025-01-27 13:55:22,0.0
19628,1212,-4396,-2529,-790,-4540,2025-01-27 13:55:22,0.0
20500,976,64,-4456,-1305,-156,2025-01-27 13:55:22,0.0
26124,3984,4672,-5853,2419,-556,2025-01-27 13:55:22,0.0
28820,4428,11088,-4855,3509,-3762,2025-01-27 13:55:22,0.0
27936,4088,15336,-544,1669,-7449,2025-01-27 13:55:22,0.0
21984,3368,16612,5455,-3092,-7327,2025-01-27 13:55:22,0.0
16744,4396,11856,9801,-7157,-4310,2025-01-27 13:55:22,0.0
11872,1696,8160,10986,-11338,468,2025-01-27 13:55:22,0.0
13040,-2200,2240,8712,-11662,4320,2025-01-27 13:55:22,0.0
16144,-3676,616,4073,-6159,4228,2025-01-27 13:55:22,0.0
17760,-3604,3308,1671,2532,2628,2025-01-27 13:55:22,0.0
16940,-1376,6140,2344,10274,2908,2025-01-27 13:55:22,0.0
16856,1720,5216,3617,12983,5580,2025-01-27 13:55:22,0.0
20088,2840,4548,4683,11195,7539,2025-01-27 13:55:22,0.0
21696,508,7364,7567,6819,6931,2025-01-27 13:55:22,0.0
17452,-2196,4656,8640,-614,6903,2025-01-27 13:55:22,0.0
15788,-2456,3668,7058,-8335,6822,2025-01-27 13:55:22,0.0
14600,-3200,3764,6385,-12083,5939,2025-01-27 13:55:22,0.0
13892,-3544,2840,6651,-10744,3420,2025-01-27 13:55:22,0.0
11076,-2364,1412,5809,-3375,1973,2025-01-27 13:55:22,0.0
11568,-2312,2896,5958,3575,2003,2025-01-27 13:55:22,0.0
13576,-2304,3204,7074,6991,2125,2025-01-27 13:55:22,0.0
15660,-2056,1244,6933,6973,1919,2025-01-27 13:55:22,0.0
17384,-2080,-388,5844,4832,974,2025-01-27 13:55:22,0.0
17992,-2220,-968,4574,2168,-212,2025-01-27 13:55:22,0.0
17260,-2352,-852,3460,598,-1478,2025-01-27 13:55:22,0.0
16172,-2024,-152,3264,-361,-1827,2025-01-27 13:55:22,0.0
16128,-1336,1020,3443,894,-2309,2025-01-27 13:55:22,0.0
17500,-1660,2152,3930,3056,-2610,2025-01-27 13:55:22,0.0
17236,-1992,4116,4824,5920,-1945,2025-01-27 13:55:22,0.0
19064,-2876,3700,5793,8509,-27,2025-01-27 13:55:22,0.0
22304,-3024,732,5696,10523,2543,2025-01-27 13:55:22,0.0
24456,-3664,-604,4592,10162,4567,2025-01-27 13:55:22,0.0
25940,-5288,-1128,3342,7200,6073,2025-01-27 13:55:22,0.0
27928,-6504,-140,2874,1882,6100,2025-01-27 13:55:22,0.0
29460,-4920,252,3178,-5906,1937,2025-01-27 13:55:22,0.0
24228,-2596,2948,2601,-6000,935,2025-01-27 13:55:22,0.0
23060,-1072,5068,3927,-3476,3115,2025-01-27 13:55:22,0.0
23064,-5296,1852,3051,-718,3684,2025-01-27 13:55:22,0.0
21448,-7644,4404,-859,-2797,4176,2025-01-27 13:55:22,0.0
22772,-8936,8416,-2633,-7509,3229,2025-01-27 13:55:22,0.0
22036,-4708,8268,-3697,-11703,-585,2025-01-27 13:55:22,0.0
17428,-2044,8616,-5825,-13334,-1399,2025-01-27 13:55:22,0.0
16692,396,9428,-6589,-10334,-881,2025-01-27 13:55:22,0.0
16900,2248,9312,-4909,-1945,-1197,2025-01-27 13:55:22,0.0
18084,2668,7536,-2024,7440,-1537,2025-01-27 13:55:22,0.0
21548,448,4352,-518,13230,-2922,2025-01-27 13:55:22,0.0
23128,-3168,1368,-1064,14976,-5238,2025-01-27 13:55:22,0.0
22016,-5352,828,-2945,10287,-6156,2025-01-27 13:55:22,0.0
20292,-4944,2956,-4675,3016,-5475,2025-01-27 13:55:22,0.0
19068,-2664,4356,-5419,-3646,-5263,2025-01-27 13:55:22,0.0
15740,-688,5028,-5537,-9106,-5282,2025-01-27 13:55:22,0.0
11916,928,4580,-5946,-12469,-5321,2025-01-27 13:55:22,0.0
10684,1892,3488,-6555,-12819,-5314,2025-01-27 13:55:22,0.0
12212,1788,2804,-6451,-9632,-6645,2025-01-27 13:55:22,0.0
14136,-48,0,-3465,241,1170,2025-01-27 13:55:22,0.0
15200,-1832,652,-2822,253,2771,2025-01-27 13:55:23,0.0
15360,-2668,-236,-3002,390,3811,2025-01-27 13:55:23,0.0
17780,-1804,-1316,-4361,634,4135,2025-01-27 13:55:23,0.0
19428,1004,-200,-6041,1049,3403,2025-01-27 13:55:23,0.0
23632,1816,2232,-6605,1591,1328,2025-01-27 13:55:23,0.0
27240,128,2624,-5735,3325,-1350,2025-01-27 13:55:23,0.0
31568,-1416,268,-4829,6928,-5571,2025-01-27 13:55:23,0.0
28768,-544,-3392,-3544,7309,-10201,2025-01-27 13:55:23,0.0
23860,760,-4228,-4038,2461,-9849,2025-01-27 13:55:23,0.0
22840,1340,-932,-4703,-2130,-6645,2025-01-27 13:55:23,0.0
23832,-1240,3752,-5016,-2486,-1924,2025-01-27 13:55:23,0.0
28032,2252,7176,-5342,-2005,-2558,2025-01-27 13:55:23,0.0
28588,4096,13568,-3376,-3384,-5387,2025-01-27 13:55:23,0.0
25052,7168,15012,199,-7695,-8073,2025-01-27 13:55:23,0.0
17180,8920,10052,2776,-12885,-6673,2025-01-27 13:55:23,0.0
10424,4804,8168,5412,-16666,-637,2025-01-27 13:55:23,0.0
11824,-2124,4736,7962,-12800,5157,2025-01-27 13:55:23,0.0
16212,-4136,400,4414,-4744,6703,2025-01-27 13:55:23,0.0
18496,-5380,2568,860,2675,4598,2025-01-27 13:55:23,0.0
18000,-2700,5696,-193,10951,1716,2025-01-27 13:55:23,0.0
16732,2456,5144,785,15094,3042,2025-01-27 13:55:23,0.0
18560,5100,5116,2436,14304,4970,2025-01-27 13:55:23,0.0
19732,4872,7364,5822,9635,5429,2025-01-27 13:55:23,0.0
17072,916,5784,7797,1763,6600,2025-01-27 13:55:23,0.0
15528,-2296,5208,7508,-5698,7542,2025-01-27 13:55:23,0.0
13800,-4600,5152,7034,-11411,7353,2025-01-27 13:55:23,0.0
13200,-7260,5036,7386,-13343,5636,2025-01-27 13:55:23,0.0
12816,-5976,1384,6645,-5465,2764,2025-01-27 13:55:23,0.0
10520,-3688,3072,5026,3083,2710,2025-01-27 13:55:23,0.0
12704,-2508,5024,6090,7974,2924,2025-01-27 13:55:23,0.0
13804,-1500,2812,7067,8695,3020,2025-01-27 13:55:23,0.0
15616,-1184,444,6970,6671,3166,2025-01-27 13:55:23,0.0
17692,-1320,-760,6071,3990,2160,2025-01-27 13:55:23,0.0
18720,-1904,-836,4909,2559,257,2025-01-27 13:55:23,0.0
18264,-2232,84,4377,1986,-1400,2025-01-27 13:55:23,0.0
17176,-1856,920,4631,2113,-2232,2025-01-27 13:55:23,0.0
18276,-1744,1104,5169,2976,-2455,2025-01-27 13:55:23,0.0
18404,-1784,2804,5928,4383,-2388,2025-01-27 13:55:23,0.0
19424,-2028,2836,6890,5304,-984,2025-01-27 13:55:23,0.0
21804,-1716,1496,7078,5461,632,2025-01-27 13:55:23,0.0
23296,-2588,-1388,6172,4295,2131,2025-01-27 13:55:23,
23332,-5820,-3012,5271,3148,4722,2025-01-27 13:55:23,0.0
25252,-9704,-3020,4213,1227,8166,2025-01-27 13:55:23,0.0
29068,-9716,-640,3247,-2545,6085,2025-01-27 13:55:23,0.0
28272,-4976,1152,1195,-3025,1320,2025-01-27 13:55:23,0.0
22876,-772,4916,697,-2981,1805,2025-01-27 13:55:23,0.0
21768,-6208,3324,1477,-2305,3780,2025-01-27 13:55:23,0.0
21988,-8532,3936,-1375,-4137,3956,2025-01-27 13:55:23,0.0
23620,-8908,7904,-4426,-8842,2548,2025-01-27 13:55:23,0.0
22148,-4724,8476,-5949,-11550,-836,2025-01-27 13:55:23,0.0
18696,-2720,9288,-7948,-10377,-881,2025-01-27 13:55:23,0.0
18464,308,10704,-8185,-6068,-71,2025-01-27 13:55:23,0.0
19524,2892,10064,-6517,-142,-719,2025-01-27 13:55:23,0.0
20516,3292,8248,-4407,4583,-2478,2025-01-27 13:55:23,0.0
20780,2408,5764,-3096,6592,-4438,2025-01-27 13:55:23,0.0
20724,-2180,2756,-3316,6205,-6684,2025-01-27 13:55:24,0.0
18764,-5280,3048,-4490,3731,-6837,2025-01-27 13:55:26,0.0
17204,-6112,3724,-5665,1491,-6012,2025-01-27 13:55:26,0.0
15372,-4480,4640,-6650,84,-5341,2025-01-27 13:55:26,0.0
13208,-1904,4248,-7503,-1839,-5236,2025-01-27 13:55:26,0.0
12648,116,3820,-8088,-3370,-5367,2025-01-27 13:55:26,0.0
11948,1776,4828,-7853,-4025,-5919,2025-01-27 13:55:26,0.0
11812,2928,4144,-7464,-2616,-6307,2025-01-27 13:55:26,0.0
11716,3172,3428,-7508,666,-5785,2025-01-27 13:55:26,0.0
17372,-4120,2788,-282,-3834,6469,2025-01-27 13:55:26,0.0
10628,-2784,3336,6911,1776,3256,2025-01-27 13:55:26,0.0
12800,-2724,3312,7803,5360,3653,2025-01-27 13:55:26,0.0
14468,-2296,2380,7922,6666,3383,2025-01-27 13:55:26,0.0
15612,-1504,808,7025,4701,2575,2025-01-27 13:55:26,0.0
16524,-1176,164,6005,1634,944,2025-01-27 13:55:27,0.0
16288,-1628,48,5294,457,-547,2025-01-27 13:55:27,0.0
16032,-2252,260,5339,1223,-1619,2025-01-27 13:55:27,0.0
15596,-2228,448,5573,2027,-1970,2025-01-27 13:55:27,0.0
15824,-2132,616,5484,2565,-2055,2025-01-27 13:55:27,0.0
16672,-2104,896,5253,3392,-1950,2025-01-27 13:55:27,0.0
18008,-1832,1884,5089,4148,-1528,2025-01-27 13:55:27,0.0
20044,-1432,2224,5195,5740,-750,2025-01-27 13:55:27,0.0
22016,-1396,2060,5395,7504,281,2025-01-27 13:55:27,0.0
23432,-4712,-1000,3586,4869,4545,2025-01-27 13:55:27,0.0
26220,-5944,-1540,3068,1155,5886,2025-01-27 13:55:27,0.0
28760,-4960,-1008,3478,-1684,3894,2025-01-27 13:55:27,0.0
26724,-2452,3700,2834,-433,2335,2025-01-27 13:55:27,0.0
24128,-2284,5892,4032,-35,5557,2025-01-27 13:55:27,0.0
22104,-6048,1848,1640,-1531,7547,2025-01-27 13:55:27,0.0
22584,-9948,4652,-2094,-5338,7594,2025-01-27 13:55:27,0.0
25972,-9768,7140,-3201,-8679,3548,2025-01-27 13:55:27,0.0
22416,-3576,6924,-4970,-8449,-1166,2025-01-27 13:55:27,0.0
18236,-1388,10392,-6470,-9360,-1875,2025-01-27 13:55:27,0.0
16728,1104,12444,-5732,-8698,-1891,2025-01-27 13:55:27,0.0
15644,3012,11452,-3596,-4209,-1894,2025-01-27 13:55:27,0.0
16608,3592,8156,-1720,1587,-1806,2025-01-27 13:55:27,0.0
18788,896,4880,-718,8378,-2608,2025-01-27 13:55:27,0.0
21404,-3072,2284,-1283,11666,-4188,2025-01-27 13:55:27,0.0
22144,-6472,1148,-3312,9725,-5366,2025-01-27 13:55:27,0.0
20568,-6552,2800,-5501,4546,-5427,2025-01-27 13:55:27,0.0
18596,-4040,4040,-6531,-673,-5403,2025-01-27 13:55:27,0.0
15424,-1668,4612,-7122,-4668,-5616,2025-01-27 13:55:27,0.0
12924,148,4544,-7687,-7793,-5294,2025-01-27 13:55:27,0.0
12140,1104,4612,-7736,-8466,-5230,2025-01-27 13:55:27,0.0
11788,2256,3648,-7501,-4688,-5397,2025-01-27 13:55:27,0.0
11228,2840,2952,-7386,396,-4562,2025-01-27 13:55:27,0.0
12584,2172,3172,-6860,4265,-3285,2025-01-27 13:55:27,0.0
25124,3492,-1556,-4527,981,-10215,2025-01-27 13:55:27,0.0
24516,1476,1320,-5133,529,-8885,2025-01-27 13:55:27,0.0
23992,-1836,2568,-5933,-102,-5616,2025-01-27 13:55:27,0.0
26620,364,6144,-5568,-1094,-4482,2025-01-27 13:55:27,0.0
28060,3888,12124,-2907,-3141,-7118,2025-01-27 13:55:27,0.0
22956,7356,13780,772,-6606,-7971,2025-01-27 13:55:27,0.0
12928,6712,12528,3320,-10994,-3217,2025-01-27 13:55:27,0.0
12008,1288,11016,6446,-13512,2150,2025-01-27 13:55:27,0.0
13196,-1172,5272,6168,-11623,4662,2025-01-27 13:55:27,0.0
15688,-3232,1408,2136,-4351,4622,2025-01-27 13:55:27,0.0
16208,-4900,3104,-619,4373,3861,2025-01-27 13:55:27,0.0
15620,-4116,5824,-164,10233,3989,2025-01-27 13:55:27,0.0
16564,-640,6668,1718,11607,5109,2025-01-27 13:55:27,0.0
19864,4068,5292,3545,9892,5785,2025-01-27 13:55:27,0.0
20856,4056,5408,5249,7156,5276,2025-01-27 13:55:35,0.0
17476,1412,4848,6860,3248,5670,2025-01-27 13:55:35,0.0
15628,-680,3556,6698,-1277,6844,2025-01-27 13:55:35,0.0
14728,-1884,3420,5369,-6162,6979,2025-01-27 13:55:35,0.0
14948,-3040,3776,4728,-8933,6153,2025-01-27 13:55:35,0.0
16108,-4516,3832,4911,-7560,3305,2025-01-27 13:55:35,0.0
13648,-4088,2992,4904,-1851,1596,2025-01-27 13:55:35,0.0
13536,-3612,3748,4968,3815,1956,2025-01-27 13:55:35,0.0
14956,-3104,2956,5549,5676,2198,2025-01-27 13:55:36,0.0
25756,3380,2588,7332,2996,3429,2025-01-27 13:55:36,0.0
24184,1152,4880,8914,2627,5536,2025-01-27 13:55:36,0.0
22620,-4172,3416,7528,-1086,8736,2025-01-27 13:55:36,0.0
24720,-9232,5760,4547,-8043,9756,2025-01-27 13:55:36,0.0
13508,-3532,11852,-3327,-10405,-3476,2025-01-27 13:55:36,0.0
11152,432,11916,34,-6070,-977,2025-01-27 13:55:36,0.0
14100,4028,7188,3396,2077,575,2025-01-27 13:55:36,0.0
18436,5012,3244,5186,11099,-276,2025-01-27 13:55:36,0.0
22572,1064,812,4699,15533,-2419,2025-01-27 13:55:36,0.0
24168,-3676,924,3074,11544,-4213,2025-01-27 13:55:36,0.0
24124,-4884,2492,1671,4900,-4960,2025-01-27 13:55:36,0.0
22140,-3792,3444,692,-1857,-5652,2025-01-27 13:55:36,0.0
17136,-2480,4616,295,-6979,-5454,2025-01-27 13:55:36,0.0
14608,-1436,3972,32,-9661,-5006,2025-01-27 13:55:36,0.0
12836,-976,3504,-516,-9926,-4623,2025-01-27 13:55:36,0.0
12200,-48,1388,-1024,-7556,-4971,2025-01-27 13:55:36,
11952,956,292,-2030,-1048,-5031,2025-01-27 13:55:36,0.0
13920,880,1948,-1974,3371,-4667,2025-01-27 13:55:36,0.0
15184,768,1944,-1571,4783,-4289,2025-01-27 13:55:36,0.0
15724,492,1988,-781,4394,-3794,2025-01-27 13:55:36,0.0
15100,816,1624,371,3123,-2673,2025-01-27 13:55:36,0.0
14396,1196,1404,1398,1387,-760,2025-01-27 13:55:36,0.0
14364,908,1416,1983,-20,1013,2025-01-27 13:55:36,0.0
15504,720,-808,2425,-457,1779,2025-01-27 13:55:36,0.0
15184,528,-900,1878,78,2175,2025-01-27 13:55:36,0.0
15788,-52,-684,899,1224,2360,2025-01-27 13:55:36,0.0
17072,-768,-96,-78,1741,2667,2025-01-27 13:55:36,0.0
18892,-1020,80,-875,2037,2699,2025-01-27 13:55:36,0.0
20884,-480,196,-1685,2803,2118,2025-01-27 13:55:36,0.0
24412,344,128,-2683,3563,439,2025-01-27 13:55:36,0.0
26168,-576,580,-3353,3322,-1387,2025-01-27 13:55:37,0.0
29960,-1216,2324,-2359,4038,-3842,2025-01-27 13:55:37,0.0
28172,136,404,763,4627,-6870,2025-01-27 13:55:37,0.0
25888,2420,-1352,805,2391,-7204,2025-01-27 13:55:37,0.0
23548,2304,560,-810,-910,-5341,2025-01-27 13:55:37,0.0
22984,2540,3796,-1366,-2317,-2718,2025-01-27 13:55:37,0.0
25356,4124,8292,-178,-2833,-2516,2025-01-27 13:55:37,0.0
27424,5716,11764,2536,-3168,-5022,2025-01-27 13:55:37,0.0
25968,6692,12876,5734,-4526,-7808,2025-01-27 13:55:37,0.0
18456,5848,11852,8757,-8737,-7903,2025-01-27 13:55:37,0.0
11016,2808,10280,10464,-13907,-3363,2025-01-27 13:55:37,0.0
9712,-2396,7572,10768,-16254,2329,2025-01-27 13:55:37,0.0
13320,-4748,3208,8450,-11865,5980,2025-01-27 13:55:37,0.0
16992,-5244,4308,6627,-2508,5056,2025-01-27 13:55:37,0.0
17200,-1596,5676,5668,6850,3611,2025-01-27 13:55:37,0.0
17688,3136,5612,5642,12492,3951,2025-01-27 13:55:37,0.0
20236,5536,5416,7740,14929,3946,2025-01-27 13:55:37,0.0
19020,3020,4920,10386,11343,3891,2025-01-27 13:55:37,0.0
17488,-132,4144,11357,3813,6155,2025-01-27 13:55:37,0.0
17120,-2276,4872,11429,-5552,7023,2025-01-27 13:55:37,0.0
16320,-3548,4904,11201,-11563,5974,2025-01-27 13:55:37,0.0
14496,-3808,3436,11224,-12397,4314,2025-01-27 13:55:37,0.0
13956,-2888,2408,11477,-5110,1839,2025-01-27 13:55:37,0.0
12856,-2396,1244,10836,1782,1711,2025-01-27 13:55:37,0.0
15056,-1756,2252,10969,6116,1860,2025-01-27 13:55:37,0.0
16428,-1044,2296,11490,6799,1611,2025-01-27 13:55:37,0.0
17764,-1360,272,10945,4995,1190,2025-01-27 13:55:37,0.0
19176,-2492,204,10134,1727,502,2025-01-27 13:55:37,0.0
19236,-3504,-288,9305,-471,-708,2025-01-27 13:55:37,0.0
18428,-3320,-864,8204,-1475,-1407,2025-01-27 13:55:37,0.0
17460,-2880,-656,7401,-1546,-1585,2025-01-27 13:55:37,0.0
17584,-1724,296,7387,-1229,-1322,2025-01-27 13:55:37,0.0
17672,-1604,952,7783,-471,-1188,2025-01-27 13:55:37,0.0
17484,-1212,1604,7891,124,-767,2025-01-27 13:55:37,0.0
17644,-708,2112,7861,884,117,2025-01-27 13:55:37,0.0
17960,-612,1736,7607,1571,1259,2025-01-27 13:55:37,0.0
19056,-3092,-200,7014,3408,2385,2025-01-27 13:55:37,0.0
20672,-6156,-2192,6460,6130,4215,2025-01-27 13:55:37,0.0
21884,-8104,-2304,6595,6916,6232,2025-01-27 13:55:37,0.0
25164,-6452,-404,6548,5289,6631,2025-01-27 13:55:37,0.0
28676,-360,1560,4437,6764,5901,2025-01-27 13:55:37,0.0
26140,136,4976,4016,4913,6418,2025-01-27 13:55:37,0.0
24752,-3488,3528,3448,-1614,7299,2025-01-27 13:55:37,0.0
28228,-6484,4768,1231,-8524,5244,2025-01-27 13:55:37,0.0
28496,-5536,5156,-424,-10920,-1080,2025-01-27 13:55:37,0.0
22184,-3048,6904,-3444,-11790,-3269,2025-01-27 13:55:37,0.0
18388,-2796,12884,-3755,-12215,-2535,2025-01-27 13:55:37,0.0
16456,-2016,14384,-1051,-10993,-1850,2025-01-27 13:55:37,0.0
14080,996,10212,1935,-6319,-1020,2025-01-27 13:55:37,0.0
14488,3892,5540,3288,-663,-513,2025-01-27 13:55:37,0.0
18684,5184,1768,3930,8149,-1876,2025-01-27 13:55:37,0.0
21232,1864,2496,4407,12421,-3976,2025-01-27 13:55:37,0.0
20396,-2236,2616,4545,8928,-4538,2025-01-27 13:55:37,0.0
21344,-3480,3128,3896,2771,-4269,2025-01-27 13:55:37,0.0
20640,-3288,3120,2669,-1983,-5212,2025-01-27 13:55:37,0.0
17576,-2276,3628,1848,-4810,-5640,2025-01-27 13:55:37,0.0
14956,-1588,4556,1701,-6432,-5071,2025-01-27 13:55:37,0.0
13324,-632,3912,1717,-7203,-4524,2025-01-27 13:55:37,0.0
12764,180,1672,1447,-6190,-4448,2025-01-27 13:55:37,0.0
12568,604,-444,670,-2986,-4501,2025-01-27 13:55:37,0.0
13248,488,136,-119,519,-4221,2025-01-27 13:55:37,0.0
14596,52,1336,-202,2859,-4118,2025-01-27 13:55:37,0.0
15096,472,2076,603,3585,-3874,2025-01-27 13:55:38,0.0
14692,1216,1472,1399,3055,-2886,2025-01-27 13:55:38,0.0
14496,2136,1868,1971,2297,-1416,2025-01-27 13:55:38,0.0
15020,2264,536,2484,1769,13,2025-01-27 13:55:38,0.0
15540,1408,12,2630,1211,1053,2025-01-27 13:55:38,0.0
15616,188,-508,1958,606,1698,2025-01-27 13:55:38,0.0
16568,-756,-1344,500,336,1961,2025-01-27 13:55:38,0.0
17340,-988,-1060,-588,336,1921,2025-01-27 13:55:38,0.0
17444,-216,-208,-1035,194,2328,2025-01-27 13:55:38,0.0
19520,1396,-156,-1446,524,2837,2025-01-27 13:55:38,0.0
22280,1476,1144,-2226,1997,2641,2025-01-27 13:55:38,0.0
25324,-2720,1880,-2620,2200,1633,2025-01-27 13:55:38,0.0
32532,-2716,532,-2513,4361,-4160,2025-01-27 13:55:38,0.0
26988,-456,-2924,-1601,5191,-8650,2025-01-27 13:55:38,0.0
21376,1668,-4512,-1375,1474,-8035,2025-01-27 13:55:38,0.0
18468,4640,-2944,-2633,-2941,-4285,2025-01-27 13:55:38,0.0
19424,4616,540,-3243,-1031,-1423,2025-01-27 13:55:38,0.0
23016,4876,2248,-3237,3436,309,2025-01-27 13:55:38,0.0
28028,4908,5352,-3041,7049,-1090,2025-01-27 13:55:38,0.0
30652,3852,8944,-1734,7584,-4309,2025-01-27 13:55:38,0.0
26208,2832,16020,2434,1527,-6161,2025-01-27 13:55:38,0.0
19612,3776,17796,8622,-7673,-4906,2025-01-27 13:55:38,0.0
11216,3692,12380,10599,-17525,-824,2025-01-27 13:55:38,0.0
10352,-864,7748,10370,-23009,3591,2025-01-27 13:55:38,
12348,-3932,1900,8572,-19464,4934,2025-01-27 13:55:38,0.0
14964,-4344,288,5529,-4986,3711,2025-01-27 13:55:38,0.0
14284,-760,4176,3344,8239,2952,2025-01-27 13:55:38,0.0
15860,3208,7464,3863,16260,4312,2025-01-27 13:55:38,0.0
19112,6180,5368,6090,18814,6047,2025-01-27 13:55:38,0.0
22588,5244,5536,8757,13781,5625,2025-01-27 13:55:38,0.0
20888,-584,7056,12427,5378,6051,2025-01-27 13:55:38,0.0
17616,-3152,5308,12817,-5402,7774,2025-01-27 13:55:38,0.0
16112,-4340,4852,11248,-13956,7541,2025-01-27 13:55:38,0.0
14596,-5612,5644,11278,-17852,5877,2025-01-27 13:55:38,0.0
16000,-5292,1372,11040,-11936,2425,2025-01-27 13:55:38,0.0
11228,-3924,1028,9326,-2540,1763,2025-01-27 13:55:38,0.0
12788,-3100,4584,9625,4979,2948,2025-01-27 13:55:38,0.0
16048,-1260,3836,11206,6904,2792,2025-01-27 13:55:38,0.0
17804,-616,2132,11365,5081,2591,2025-01-27 13:55:38,0.0
19356,-696,1080,11009,1345,1666,2025-01-27 13:55:38,0.0
19312,-720,412,10884,-940,406,2025-01-27 13:55:38,0.0
18100,-308,-1468,10389,-1517,-569,2025-01-27 13:55:38,0.0
17504,-364,-656,9935,-2022,-1134,2025-01-27 13:55:38,0.0
18240,-1100,704,10425,-2507,-1447,2025-01-27 13:55:38,0.0
20144,-1252,-180,11040,-2075,-2151,2025-01-27 13:55:38,0.0
20224,-2108,-224,11054,-936,-2912,2025-01-27 13:55:38,0.0
18380,-2580,592,10687,-1752,-2795,2025-01-27 13:55:38,0.0
17084,-2888,2276,9709,-2978,-1750,2025-01-27 13:55:38,0.0
17664,-4488,2220,8475,-2309,-448,2025-01-27 13:55:38,0.0
19156,-7560,-1024,7420,2096,1117,2025-01-27 13:55:38,0.0
20948,-8372,-4948,6728,6754,3159,2025-01-27 13:55:38,0.0
24748,-5636,-6564,6594,8993,4676,2025-01-27 13:55:38,0.0
27080,-2064,-4156,5733,9384,4438,2025-01-27 13:55:38,0.0
26948,1144,3248,3616,9637,4434,2025-01-27 13:55:38,0.0
24460,-372,8248,4478,4204,4340,2025-01-27 13:55:38,0.0
21368,-4232,4200,4856,-4771,5464,2025-01-27 13:55:38,0.0
25204,-7296,4400,1305,-13206,4052,2025-01-27 13:55:38,0.0
25020,-6224,6772,-870,-12510,116,2025-01-27 13:55:38,0.0
18872,-3228,10228,-3305,-10243,-253,2025-01-27 13:55:38,0.0
17672,-264,13308,-1750,-6874,857,2025-01-27 13:55:39,0.0
17608,3384,10620,1427,-1796,672,2025-01-27 13:55:39,0.0
18820,5488,6824,3538,2999,-509,2025-01-27 13:55:39,0.0
20788,5604,3516,4222,7611,-2406,2025-01-27 13:55:39,0.0
22108,2016,2624,3949,9603,-4575,2025-01-27 13:55:39,0.0
21196,-3012,1992,3345,7145,-5801,2025-01-27 13:55:39,0.0
19516,-6220,2800,2226,2240,-5365,2025-01-27 13:55:39,0.0
19164,-6488,2044,807,-1256,-5113,2025-01-27 13:55:39,0.0
17184,-5084,1848,-1390,-3023,-5790,2025-01-27 13:55:39,0.0
22180,268,1996,-5603,3732,1773,2025-01-27 13:55:39,0.0
25868,540,1040,-5787,4519,-387,2025-01-27 13:55:39,0.0
30208,1252,676,-4705,6960,-5245,2025-01-27 13:55:39,0.0
28912,2260,-2516,-2617,8421,-9073,2025-01-27 13:55:39,0.0
24444,2228,-5124,-2599,6155,-9252,2025-01-27 13:55:39,0.0
23904,1264,-1792,-3450,2480,-7330,2025-01-27 13:55:39,0.0
23328,28,1784,-4513,-1142,-4292,2025-01-27 13:55:39,0.0
26956,4028,3456,-5700,-1805,-2861,2025-01-27 13:55:39,0.0
28020,5880,11424,-3089,-1038,-5483,2025-01-27 13:55:39,0.0
24168,7260,12828,734,-3897,-6762,2025-01-27 13:55:39,0.0
18484,3572,11652,3675,-10602,-3837,2025-01-27 13:55:39,0.0
17844,-280,12888,8397,-13968,-2224,2025-01-27 13:55:39,0.0
15760,-2676,9248,8503,-13811,-363,2025-01-27 13:55:39,0.0
16120,-4308,6964,5371,-9710,935,2025-01-27 13:55:39,0.0
16020,-4352,5200,3387,-1857,1097,2025-01-27 13:55:39,0.0
14536,-3260,3708,2328,6546,2098,2025-01-27 13:55:39,0.0
15256,-496,4320,1819,11622,3606,2025-01-27 13:55:39,0.0
16588,2232,5100,2557,13106,5107,2025-01-27 13:55:39,0.0
18516,3648,4248,3675,11833,6054,2025-01-27 13:55:39,0.0
18744,2540,4572,4669,7325,6610,2025-01-27 13:55:39,0.0
18508,-1208,5288,5538,510,7075,2025-01-27 13:55:39,0.0
17584,-3324,4316,6058,-4559,6725,2025-01-27 13:55:39,0.0
15676,-3824,3352,5526,-8300,5703,2025-01-27 13:55:39,0.0
15528,-4136,1604,4353,-9552,4340,2025-01-27 13:55:39,0.0
14128,-3584,2008,3675,-4555,2125,2025-01-27 13:55:39,0.0
12640,-2700,3216,3317,1350,2010,2025-01-27 13:55:39,0.0
13864,-2516,4228,4214,4177,2681,2025-01-27 13:55:39,0.0
16012,-2308,2332,4940,5404,2857,2025-01-27 13:55:39,0.0
17176,-2060,720,4288,4112,2471,2025-01-27 13:55:39,0.0
18872,-2336,-116,3325,2029,1329,2025-01-27 13:55:39,0.0
18452,-2412,48,2416,514,-64,2025-01-27 13:55:39,0.0
18328,-2384,-212,1640,-632,-1379,2025-01-27 13:55:39,0.0
17300,-1988,-192,1674,-997,-2247,2025-01-27 13:55:39,0.0
15640,-1524,460,2123,-1677,-1980,2025-01-27 13:55:39,0.0
16436,-1048,192,2638,-2182,-2109,2025-01-27 13:55:39,0.0
16400,-1316,1404,2911,-856,-2547,2025-01-27 13:55:39,0.0
17052,-1676,2892,3313,1945,-2265,2025-01-27 13:55:39,0.0
18500,-1712,3864,4301,6384,-1374,2025-01-27 13:55:39,0.0
20076,-2556,1388,4721,9991,98,2025-01-27 13:55:39,0.0
21512,-4172,-1504,4116,10920,2778,2025-01-27 13:55:39,0.0
24212,-5572,-2124,3860,9488,5306,2025-01-27 13:55:39,0.0
28076,-4952,-2328,3463,5087,5624,2025-01-27 13:55:40,0.0
29360,-3816,968,2677,1626,3283,2025-01-27 13:55:40,0.0
26384,-1000,4856,2972,-1813,2362,2025-01-27 13:55:40,0.0
24532,-4224,3940,3386,-3405,3358,2025-01-27 13:55:40,0.0
23084,-7248,3408,1007,-4305,4865,2025-01-27 13:55:40,0.0
24472,-8732,5760,-1354,-6329,5178,2025-01-27 13:55:40,0.0
26208,-8196,7348,-2703,-8999,2225,2025-01-27 13:55:40,0.0
21768,-4388,7700,-5180,-12059,-720,2025-01-27 13:55:40,0.0
18652,-1624,9616,-6605,-13621,-1888,2025-01-27 13:55:40,0.0
15184,1532,10100,-5443,-8767,-2317,2025-01-27 13:55:40,0.0
14196,2640,9136,-3635,-2750,-1503,2025-01-27 13:55:40,0.0
16704,1172,6160,-1900,4791,-1319,2025-01-27 13:55:40,0.0
19188,-3092,3148,-1934,10112,-2627,2025-01-27 13:55:40,0.0
20096,-6544,1100,-4280,10835,-3689,2025-01-27 13:55:40,0.0
20632,-7452,1452,-7334,7831,-4141,2025-01-27 13:55:40,
20088,-4588,3844,-8564,3029,-4587,2025-01-27 13:55:40,0.0
18252,-1284,5088,-8480,-1150,-5214,2025-01-27 13:55:40,0.0
15452,856,5572,-8240,-4970,-5392,2025-01-27 13:55:40,0.0
12944,1840,5272,-8181,-7667,-5446,2025-01-27 13:55:40,0.0
12840,2324,4356,-8099,-7506,-5874,2025-01-27 13:55:40,0.0
11928,1992,3904,-7918,-1514,-5982,2025-01-27 13:55:40,0.0
12104,1052,4588,-7721,3695,-4676,2025-01-27 13:55:40,0.0
14748,328,3912,-7151,6524,-4047,2025-01-27 13:55:40,0.0
16932,-464,1356,-6781,6287,-3930,2025-01-27 13:55:40,0.0
17488,-288,1108,-6053,3679,-2952,2025-01-27 13:55:40,0.0
16472,540,1456,-4652,-647,-754,2025-01-27 13:55:40,0.0
15964,324,2288,-3412,-4490,1492,2025-01-27 13:55:40,0.0
16280,-756,1280,-3110,-5859,2531,2025-01-27 13:55:40,0.0
16192,-1428,-1052,-3875,-4738,2632,2025-01-27 13:55:40,0.0
16032,-2796,-1652,-4864,-2421,2404,2025-01-27 13:55:40,0.0
16096,-3052,-1216,-5541,-141,2251,2025-01-27 13:55:40,0.0
16792,-2032,-448,-6149,1667,2321,2025-01-27 13:55:40,0.0
18940,-1448,672,-6664,3411,2112,2025-01-27 13:55:40,0.0
21720,-1484,2052,-6993,4581,1243,2025-01-27 13:55:40,0.0
23664,-568,2984,-7086,4594,-489,2025-01-27 13:55:40,0.0
27648,1284,2244,-6330,3208,-3844,2025-01-27 13:55:40,0.0
27964,2228,-2832,-4771,2633,-7338,2025-01-27 13:55:40,0.0
26368,616,-6428,-5479,3130,-8150,2025-01-27 13:55:40,0.0
26304,-4228,-2776,-6769,4507,-8132,2025-01-27 13:55:40,0.0
23572,-5820,1220,-8584,1372,-6713,2025-01-27 13:55:40,0.0
23888,-540,6848,-9996,-4351,-5274,2025-01-27 13:55:40,0.0
26384,3960,13160,-7005,-6112,-6471,2025-01-27 13:55:40,0.0
23136,7116,12364,-2472,-5042,-6624,2025-01-27 13:55:40,0.0
15924,4868,9660,405,-5875,-2451,2025-01-27 13:55:40,0.0
14804,584,8280,3267,-7859,602,2025-01-27 13:55:40,0.0
14152,-2568,3780,1422,-9303,2724,2025-01-27 13:55:40,0.0
15740,-6052,3368,-2329,-6221,3086,2025-01-27 13:55:40,0.0
16148,-8184,4712,-5117,1753,2987,2025-01-27 13:55:40,0.0
16344,-7360,5840,-5144,8723,3704,2025-01-27 13:55:40,0.0
17172,-1548,4988,-4276,11512,4710,2025-01-27 13:55:40,0.0
20656,3416,4776,-3418,11497,4402,2025-01-27 13:55:40,0.0
21736,4616,5472,-1232,10077,2992,2025-01-27 13:55:40,0.0
18712,1792,2952,-216,6086,3483,2025-01-27 13:55:40,0.0
16776,-616,3216,-683,621,4866,2025-01-27 13:55:40,0.0
16540,-2696,3408,-1403,-5265,5665,2025-01-27 13:55:40,0.0
15904,-4084,3668,-1757,-8811,5587,2025-01-27 13:55:40,0.0
16880,-5544,4248,-1356,-7420,3203,2025-01-27 13:55:40,0.0
13544,-4304,2856,-1774,-1565,1915,2025-01-27 13:55:40,0.0
12944,-4084,3480,-2037,3743,2561,2025-01-27 13:55:40,0.0
14168,-3580,2908,-1930,5326,2714,2025-01-27 13:55:40,0.0
16312,-2076,1284,-2874,4239,1924,2025-01-27 13:55:40,0.0
16584,-1692,1128,-3739,3163,895,2025-01-27 13:55:41,0.0
16616,-1676,1588,-3912,2723,-303,2025-01-27 13:55:41,0.0
16740,-1876,1144,-3604,3109,-1252,2025-01-27 13:55:41,0.0
17072,-2056,852,-3229,3281,-1637,2025-01-27 13:55:41,0.0
17516,-2476,1344,-2693,3075,-2096,2025-01-27 13:55:41,0.0
18292,-2004,1644,-2471,1614,-2554,2025-01-27 13:55:41,0.0
18176,-1500,2084,-2193,-595,-3251,2025-01-27 13:55:41,0.0
16364,-1292,3104,-1474,-1052,-3449,2025-01-27 13:55:41,0.0
15976,-1660,4380,-252,844,-2535,2025-01-27 13:55:41,0.0
18956,-1360,3952,1360,5335,-1324,2025-01-27 13:55:41,0.0
22032,-280,1868,2457,10782,-465,2025-01-27 13:55:41,0.0
24792,-68,-688,2887,13450,1898,2025-01-27 13:55:41,0.0
26800,-2476,-2580,2697,8256,4609,2025-01-27 13:55:41,0.0
30368,-5288,-1876,2094,111,4372,2025-01-27 13:55:41,0.0
28248,-8068,936,1643,-6132,1745,2025-01-27 13:55:41,0.0
23704,-8732,4036,1171,-7905,1072,2025-01-27 13:55:41,0.0
23364,-9016,5284,-654,-4744,1088,2025-01-27 13:55:41,0.0
22012,-9912,7312,-3711,-1614,2625,2025-01-27 13:55:41,0.0
23684,-9956,9940,-5810,-2723,3044,2025-01-27 13:55:41,0.0
22140,-4604,6968,-7899,-6151,1093,2025-01-27 13:55:41,0.0
19532,-2340,6304,-9367,-8368,-68,2025-01-27 13:55:41,0.0
17728,-160,6160,-10640,-7421,-1855,2025-01-27 13:55:41,0.0
17080,1260,9052,-10748,-3314,-4505,2025-01-27 13:55:41,0.0
16540,1044,10056,-8756,1212,-5416,2025-01-27 13:55:41,0.0
16880,-1120,7196,-6695,4998,-4912,2025-01-27 13:55:41,0.0
19132,-4704,4060,-6153,6954,-4886,2025-01-27 13:55:41,0.0
19328,-6484,2456,-7833,6028,-4909,2025-01-27 13:55:41,0.0
19940,-5644,2856,-10506,3351,-4906,2025-01-27 13:55:41,0.0
18768,-2580,3708,-11714,137,-5728,2025-01-27 13:55:41,0.0
14720,848,4196,-12287,-4154,-5988,2025-01-27 13:55:41,0.0
12560,2140,5152,-12430,-6851,-5653,2025-01-27 13:55:41,0.0
12052,2136,5464,-11924,-6073,-5959,2025-01-27 13:55:41,0.0
11932,1324,5148,-11733,-2432,-5889,2025-01-27 13:55:41,0.0
13352,-168,4176,-11716,2812,-4815,2025-01-27 13:55:41,0.0
17356,-832,2072,-11350,4604,-4389,2025-01-27 13:55:41,0.0
18340,-1428,1072,-11254,2321,-4057,2025-01-27 13:55:41,0.0
17252,-1272,3028,-10003,-1900,-2705,2025-01-27 13:55:41,0.0
15624,168,2096,-8432,-5013,-642,2025-01-27 13:55:41,0.0
14956,1168,1628,-7220,-6127,1555,2025-01-27 13:55:41,0.0
14816,1076,1828,-6268,-4924,2534,2025-01-27 13:55:41,0.0
16476,376,-336,-6211,-2932,2473,2025-01-27 13:55:41,0.0
16080,-508,-60,-6969,-1578,2038,2025-01-27 13:55:41,0.0
15372,-172,1056,-7199,-59,1395,2025-01-27 13:55:41,0.0
20076,-436,-380,-7375,3866,1952,2025-01-27 13:55:41,0.0
23920,-1160,-1100,-7515,5028,995,2025-01-27 13:55:41,0.0
26580,-2040,-644,-8272,5172,-799,2025-01-27 13:55:41,0.0
30848,-1324,672,-8938,5117,-5354,2025-01-27 13:55:41,0.0
28340,148,0,-6870,4011,-10120,2025-01-27 13:55:41,0.0
22816,1176,-3444,-5939,1095,-10157,2025-01-27 13:55:41,0.0
20988,-144,-3092,-6783,-1558,-6469,2025-01-27 13:55:41,0.0
21392,-4272,-788,-7982,-1465,-2230,2025-01-27 13:55:41,0.0
24868,-940,1992,-9173,-1314,-890,2025-01-27 13:55:41,0.0
27756,2372,9564,-8637,-1471,-3624,2025-01-27 13:55:41,0.0
17060,2264,4144,691,11583,7350,2025-01-27 13:55:42,
19172,3508,3500,951,8368,7835,2025-01-27 13:55:42,0.0
21100,1336,5020,1766,4009,6581,2025-01-27 13:55:42,0.0
18104,-2700,4388,3004,111,5437,2025-01-27 13:55:42,0.0
14728,-3272,3196,1815,-5021,5653,2025-01-27 13:55:42,0.0
14092,-3652,2776,755,-7566,5895,2025-01-27 13:55:42,0.0
15580,-4444,3108,697,-5836,4540,2025-01-27 13:55:42,0.0
13144,-2824,2572,359,-65,3477,2025-01-27 13:55:42,0.0
14720,-1880,3420,659,3001,3543,2025-01-27 13:55:42,0.0
16088,-896,1852,1498,3894,3409,2025-01-27 13:55:42,0.0
16780,-240,840,1520,2687,2858,2025-01-27 13:55:42,0.0
16776,-524,1364,1278,1479,1719,2025-01-27 13:55:42,0.0
17060,-764,2064,1618,1498,869,2025-01-27 13:55:42,0.0
17436,-972,1800,2339,1809,123,2025-01-27 13:55:42,0.0
17552,-1268,1880,3086,1662,-517,2025-01-27 13:55:42,0.0
18276,-1496,1260,3712,1262,-903,2025-01-27 13:55:42,0.0
18328,-1440,1804,4307,916,-1083,2025-01-27 13:55:42,0.0
19480,-1632,1692,4925,952,-1133,2025-01-27 13:55:42,0.0
19648,-1764,2504,5227,1802,-461,2025-01-27 13:55:42,0.0
19916,-2396,3076,5516,2637,807,2025-01-27 13:55:42,0.0
19968,-3968,1140,4979,3094,2333,2025-01-27 13:55:42,0.0
20692,-6780,-1164,4253,3396,4423,2025-01-27 13:55:42,0.0
23076,-7988,-3552,3555,3915,6614,2025-01-27 13:55:42,0.0
27128,-6788,-2544,2266,4241,6129,2025-01-27 13:55:42,0.0
28996,-4820,5100,275,5772,4932,2025-01-27 13:55:42,0.0
27036,-5376,8248,559,2174,4301,2025-01-27 13:55:42,0.0
23128,-7628,5560,-1073,-6272,6661,2025-01-27 13:55:42,0.0
25428,-9036,5892,-3830,-12819,6229,2025-01-27 13:55:42,0.0
26416,-4588,4304,-5387,-12891,594,2025-01-27 13:55:42,0.0
20292,-1000,6776,-7792,-12283,-2374,2025-01-27 13:55:42,0.0
17612,640,10844,-7942,-11252,-3971,2025-01-27 13:55:42,0.0
14824,1480,12888,-6026,-7914,-3552,2025-01-27 13:55:42,0.0
14944,2140,11552,-2779,-2606,-2282,2025-01-27 13:55:42,0.0
17496,2580,6656,-202,4066,-2047,2025-01-27 13:55:42,0.0
20688,-188,3572,253,10614,-3056,2025-01-27 13:55:42,0.0
22520,-3756,2172,-848,13652,-4136,2025-01-27 13:55:42,0.0
23540,-5816,1204,-3121,9426,-4591,2025-01-27 13:55:42,0.0
22176,-4220,3308,-4617,2272,-5020,2025-01-27 13:55:42,0.0
18532,-2196,3964,-5087,-4811,-5173,2025-01-27 13:55:42,0.0
14248,-748,5188,-5135,-9228,-4723,2025-01-27 13:55:42,0.0
12540,-8,4504,-5357,-11623,-4488,2025-01-27 13:55:42,0.0
11688,724,3544,-5382,-9576,-5552,2025-01-27 13:55:42,0.0
15172,-8,1348,-4587,5053,-2473,2025-01-27 13:55:42,0.0
14944,-584,1412,-3593,3100,-1318,2025-01-27 13:55:42,0.0
14632,60,584,-2342,1090,480,2025-01-27 13:55:42,0.0
15440,1048,-740,-1618,-579,2021,2025-01-27 13:55:42,0.0
16092,1052,-784,-1450,-1628,2826,2025-01-27 13:55:42,0.0
16140,656,-1444,-1924,-1777,3065,2025-01-27 13:55:42,0.0
17588,-204,-2288,-2981,-1463,3219,2025-01-27 13:55:42,0.0
18048,-960,-256,-4020,164,2958,2025-01-27 13:55:42,0.0
19724,-1292,2624,-4541,3082,2184,2025-01-27 13:55:42,0.0
22152,-1304,2508,-5165,4856,847,2025-01-27 13:55:42,0.0
25228,-1256,-1240,-5718,5584,-1436,2025-01-27 13:55:42,0.0
30400,-1940,-1860,-5425,8291,-5770,2025-01-27 13:55:42,0.0
29292,-56,-2588,-3608,9642,-9958,2025-01-27 13:55:42,0.0
23304,1372,-3480,-3519,4882,-9169,2025-01-27 13:55:42,0.0
20832,2160,-872,-5012,-2341,-4744,2025-01-27 13:55:42,0.0
20276,832,3248,-5726,-4136,-832,2025-01-27 13:55:43,0.0
25236,4628,7136,-6012,-987,547,2025-01-27 13:55:43,0.0
30200,5480,13900,-4007,1612,-3298,2025-01-27 13:55:43,0.0
28780,5356,16176,369,769,-9116,2025-01-27 13:55:43,0.0
19868,3768,15476,4913,-5041,-9298,2025-01-27 13:55:46,0.0
12912,2780,11820,9190,-10848,-4554,2025-01-27 13:55:46,0.0
10904,-592,7484,11430,-14293,1490,2025-01-27 13:55:46,0.0
14676,-3168,2092,8718,-10660,4522,2025-01-27 13:55:46,0.0
9196,1368,2312,-6948,2352,-4592,2025-01-27 13:55:46,0.0
12224,344,2388,-6378,5756,-3475,2025-01-27 13:55:46,0.0
14444,-444,1492,-6103,5636,-3117,2025-01-27 13:55:46,0.0
22284,-1888,7840,-7127,-13020,-949,2025-01-27 13:55:46,0.0
19256,732,11148,-7988,-10016,-2694,2025-01-27 13:55:46,0.0
16840,-2224,1356,3731,-53,-2663,2025-01-27 13:55:46,0.0
16848,-1116,1688,4284,934,-2670,2025-01-27 13:55:46,0.0
17228,-664,2256,5102,2102,-2607,2025-01-27 13:55:46,0.0
17724,-1180,2116,6141,2800,-1891,2025-01-27 13:55:47,0.0
19620,-1364,1556,6686,3966,-673,2025-01-27 13:55:47,0.0
22028,-520,564,6332,6035,-4,2025-01-27 13:55:47,0.0
22904,-2028,-172,5575,8245,1317,2025-01-27 13:55:47,0.0
22864,-5660,-1964,4908,7874,4965,2025-01-27 13:55:47,0.0
25080,-7440,-1856,4757,4417,8044,2025-01-27 13:55:47,0.0
28916,-6512,556,4602,508,6869,2025-01-27 13:55:47,0.0
29252,-3740,3804,3304,782,4795,2025-01-27 13:55:47,0.0
24968,-3308,3440,2433,-674,4879,2025-01-27 13:55:47,0.0
22960,-6084,2600,623,-2445,5899,2025-01-27 13:55:47,0.0
24308,-8172,5940,-1782,-5597,6765,2025-01-27 13:55:47,0.0
26840,-7972,6904,-2294,-8521,4920,2025-01-27 13:55:47,0.0
25952,-5608,7652,-4203,-11633,560,2025-01-27 13:55:47,0.0
20332,-2608,9364,-6870,-15543,-2529,2025-01-27 13:55:47,0.0
15900,92,11164,-6917,-14635,-4468,2025-01-27 13:55:47,0.0
11700,3200,11596,-5195,-9250,-3450,2025-01-27 13:55:47,0.0
13608,4412,8652,-2438,203,-1997,2025-01-27 13:55:47,0.0
16508,944,5828,3,10493,-2544,2025-01-27 13:55:47,0.0
19080,-2856,2084,-48,16886,-3912,2025-01-27 13:55:47,0.0
21672,-3992,3572,-4596,5491,-5668,2025-01-27 13:55:47,0.0
18188,-1028,3376,-5501,-2469,-6624,2025-01-27 13:55:47,0.0
14396,464,3444,-6394,-7494,-5784,2025-01-27 13:55:47,0.0
12752,1060,3716,-6330,-10265,-4651,2025-01-27 13:55:47,0.0
12184,1264,3312,-6054,-8341,-4471,2025-01-27 13:55:47,0.0
12348,1236,1888,-6126,-2546,-4222,2025-01-27 13:55:47,0.0
13128,596,2544,-6053,2179,-3579,2025-01-27 13:55:47,0.0
14296,-76,2604,-5604,3389,-2941,2025-01-27 13:55:47,0.0
15120,88,2084,-4495,2449,-2073,2025-01-27 13:55:47,
14280,844,1012,-3081,585,-438,2025-01-27 13:55:47,0.0
14604,940,48,-2100,-880,982,2025-01-27 13:55:47,0.0
14304,196,-328,-1824,-1827,1846,2025-01-27 13:55:47,0.0
14888,-924,-1408,-2159,-1840,2665,2025-01-27 13:55:47,0.0
16212,-2048,-1876,-2915,-1374,3442,2025-01-27 13:55:47,0.0
16712,-2064,-112,-3939,-625,3527,2025-01-27 13:55:47,0.0
18376,-1392,944,-4877,-200,2662,2025-01-27 13:55:47,0.0
19972,-836,1588,-5594,100,1210,2025-01-27 13:55:47,0.0
25228,2328,-4080,-3354,10288,-11558,2025-01-27 13:55:48,0.0
16396,-2528,452,1831,1661,-1669,2025-01-27 13:55:48,0.0
16784,-1688,1332,2283,2515,-1844,2025-01-27 13:55:48,0.0
17784,-1092,1860,3198,3204,-1547,2025-01-27 13:55:48,0.0
18972,-1144,2028,4674,3715,-1342,2025-01-27 13:55:48,0.0
19200,-1172,1896,5214,2837,-485,2025-01-27 13:55:48,0.0
21056,-1480,2244,5112,2842,509,2025-01-27 13:55:48,0.0
22416,-2220,896,4874,3290,1096,2025-01-27 13:55:48,0.0
21184,-4904,-1416,4100,3278,3214,2025-01-27 13:55:48,0.0
21832,-7904,-2456,3370,2117,7545,2025-01-27 13:55:48,0.0
26276,-7624,-468,2746,172,8193,2025-01-27 13:55:48,0.0
29928,-3376,4568,1243,1409,5647,2025-01-27 13:55:48,0.0
27516,-2228,6836,1331,853,3767,2025-01-27 13:55:48,0.0
22340,-6268,4872,617,-2600,5954,2025-01-27 13:55:48,0.0
23060,-9296,5340,-1801,-7210,7325,2025-01-27 13:55:48,0.0
27224,-10136,4516,-3090,-8024,4611,2025-01-27 13:55:48,0.0
24380,-5892,5464,-6060,-8754,426,2025-01-27 13:55:48,0.0
22056,-2980,9244,-7279,-10640,-1760,2025-01-27 13:55:48,0.0
19732,100,11416,-6701,-10976,-4091,2025-01-27 13:55:48,0.0
16136,3252,11812,-4834,-8780,-4900,2025-01-27 13:55:48,0.0
14472,5464,9920,-2470,-4905,-3877,2025-01-27 13:55:48,0.0
16820,5448,5328,-442,1403,-3234,2025-01-27 13:55:48,0.0
18736,-3024,3020,990,12953,-3957,2025-01-27 13:55:48,0.0
18448,-6412,2652,-313,11106,-3039,2025-01-27 13:55:48,0.0
19880,-6024,2492,-2179,5881,-2891,2025-01-27 13:55:48,0.0
18392,-3416,2856,-3487,-627,-3456,2025-01-27 13:55:48,0.0
15904,-1104,2320,-4629,-4870,-3781,2025-01-27 13:55:49,0.0
13392,272,3004,-5466,-7983,-3770,2025-01-27 13:55:49,0.0
12584,888,3140,-5478,-8766,-4298,2025-01-27 13:55:49,0.0
11404,1652,2380,-5128,-5078,-4561,2025-01-27 13:55:49,0.0
11708,1464,2396,-4790,-317,-3869,2025-01-27 13:55:49,0.0
13632,928,2092,-4609,2992,-3350,2025-01-27 13:55:49,0.0
15060,180,1420,-4426,3820,-3256,2025-01-27 13:55:49,0.0
24500,8188,11620,2348,-5385,-6528,2025-01-27 13:55:50,0.0
17624,5644,10532,4180,-9382,-4601,2025-01-27 13:55:50,0.0
15260,-2764,7604,7552,-12603,206,2025-01-27 13:55:50,0.0
13968,-4820,5000,4576,-9587,2740,2025-01-27 13:55:50,0.0
14668,-5632,4700,2736,-3020,4224,2025-01-27 13:55:50,0.0
15240,-4504,4424,2201,4538,4551,2025-01-27 13:55:50,0.0
15892,-900,5276,2198,10159,4745,2025-01-27 13:55:50,0.0
16672,3152,4984,2608,12980,5747,2025-01-27 13:55:52,0.0
18140,5052,4060,3926,12364,6184,2025-01-27 13:55:52,0.0
22416,-3592,508,5326,6685,1502,2025-01-27 13:55:52,0.0
21212,-8080,-816,4434,3786,5275,2025-01-27 13:55:52,0.0
23956,-10388,-1664,4137,130,8816,2025-01-27 13:55:52,0.0
28936,-7536,-1064,3419,-1513,7748,2025-01-27 13:55:52,0.0
30356,-2740,2824,1368,626,4765,2025-01-27 13:55:52,0.0
25564,-1208,6100,1540,421,3912,2025-01-27 13:55:52,0.0
12964,1184,4504,-6954,-10180,-5298,2025-01-27 13:55:52,0.0
19864,-2480,-272,5942,3309,-1375,2025-01-27 13:55:52,0.0
21488,-3560,1656,5465,803,59,2025-01-27 13:55:52,0.0
22188,-2956,2396,4862,-1722,1141,2025-01-27 13:55:52,0.0
22884,-3372,672,3629,-2099,1946,2025-01-27 13:55:52,0.0
22360,-5736,-636,2783,-3,3578,2025-01-27 13:55:52,0.0
23040,-5800,-2180,2965,1410,5602,2025-01-27 13:55:52,0.0
25988,-3112,-1328,3199,2419,4773,2025-01-27 13:55:52,0.0
26132,-1252,4576,2587,4626,4605,2025-01-27 13:55:52,0.0
24428,-3828,4916,3938,2594,6049,2025-01-27 13:55:52,0.0
23180,-7116,2960,1395,-2708,7667,2025-01-27 13:55:52,0.0
25596,-10588,5340,-1670,-7731,7792,2025-01-27 13:55:52,0.0
30136,-10004,6728,-2791,-11106,3007,2025-01-27 13:55:52,0.0
22504,-3124,6272,-5865,-12263,-2925,2025-01-27 13:55:52,0.0
16788,-456,9768,-8406,-13916,-4317,2025-01-27 13:55:52,0.0
13112,2444,12044,-7708,-11366,-3872,2025-01-27 13:55:52,0.0
11564,4840,12340,-4576,-5316,-1791,2025-01-27 13:55:52,0.0
16076,3320,7524,-255,7121,-724,2025-01-27 13:55:52,0.0
19844,-924,2444,737,16006,-2283,2025-01-27 13:55:53,0.0
21732,-6244,92,-1744,16749,-4010,2025-01-27 13:55:53,0.0
24008,-7812,1416,-4315,11669,-5359,2025-01-27 13:55:53,0.0
23096,-5176,3172,-5599,3979,-6630,2025-01-27 13:55:53,0.0
18540,-1796,3248,-6474,-3264,-7317,2025-01-27 13:55:53,0.0
14808,-8,3472,-7014,-9289,-6225,2025-01-27 13:55:53,0.0
11628,996,4316,-7381,-12806,-4622,2025-01-27 13:55:53,0.0
11908,1408,3960,-7029,-12662,-4068,2025-01-27 13:55:53,0.0
11520,2104,3136,-6498,-7016,-4244,2025-01-27 13:55:53,0.0
18688,-3700,5860,-124,7695,2274,2025-01-27 13:55:53,0.0
18608,124,4964,326,10619,2793,2025-01-27 13:55:53,0.0
18392,4188,4320,1774,11335,4691,2025-01-27 13:55:53,0.0
18504,5552,5136,3701,9141,6733,2025-01-27 13:55:53,0.0
19292,4376,6372,6083,3752,7965,2025-01-27 13:55:53,0.0
18160,872,6464,7619,-1738,8428,2025-01-27 13:55:53,0.0
16516,-2392,5228,8192,-8091,7742,2025-01-27 13:55:53,0.0
14004,-4040,3120,7023,-12777,6600,2025-01-27 13:55:53,0.0
13204,-5880,2468,5929,-13537,4220,2025-01-27 13:55:53,0.0
11448,-4136,-780,4122,-6321,2124,2025-01-27 13:55:53,0.0
10488,-3044,2832,3344,2150,2192,2025-01-27 13:55:53,0.0
12616,-2232,5368,4889,8051,2394,2025-01-27 13:55:53,0.0
14616,-1944,2752,6282,10590,2364,2025-01-27 13:55:53,0.0
16384,-2204,-772,6035,9661,2593,2025-01-27 13:55:53,0.0
24932,-5972,-1560,5736,1858,5885,2025-01-27 13:55:53,0.0
28052,-4144,1596,5390,2015,5782,2025-01-27 13:55:53,0.0
27888,-2404,5600,4982,3379,5678,2025-01-27 13:55:53,
24968,-5392,4656,4331,1948,6580,2025-01-27 13:55:53,0.0
22704,-9036,4972,540,-2395,8420,2025-01-27 13:55:53,0.0
25752,-12100,6936,-2188,-7518,7909,2025-01-27 13:55:53,0.0
27420,-10288,5264,-3317,-10050,3544,2025-01-27 13:55:54,0.0
21852,-5096,5500,-5952,-12299,810,2025-01-27 13:55:54,0.0
19824,-624,9656,-7466,-15463,-289,2025-01-27 13:55:54,0.0
18836,2672,11828,-6508,-15671,-2091,2025-01-27 13:55:54,0.0
16488,5352,11252,-4678,-10410,-3279,2025-01-27 13:55:54,0.0
15092,6212,8248,-2870,-3786,-2956,2025-01-27 13:55:54,0.0
17320,2276,6660,-247,6195,-3360,2025-01-27 13:55:54,0.0
17748,-2408,4016,1131,14494,-4377,2025-01-27 13:55:54,0.0
17876,-6572,2300,-42,16766,-4337,2025-01-27 13:55:54,0.0
15216,-1260,2776,-5506,-2295,-5951,2025-01-27 13:55:54,0.0
13592,-136,3224,-6356,-6337,-5032,2025-01-27 13:55:54,0.0
13072,752,3340,-6495,-7846,-4456,2025-01-27 13:55:54,0.0
12684,1472,2888,-6410,-6462,-4096,2025-01-27 13:55:54,0.0
12952,1580,2848,-6395,-2676,-3698,2025-01-27 13:55:54,0.0
13836,1332,2444,-6281,1285,-3393,2025-01-27 13:55:54,0.0
14076,660,2716,-5707,3477,-3025,2025-01-27 13:55:54,0.0
14632,204,1296,-4664,3562,-2224,2025-01-27 13:55:54,0.0
15396,284,68,-3179,2645,-1070,2025-01-27 13:55:54,0.0
15312,348,-352,-1797,623,432,2025-01-27 13:55:54,0.0
14800,276,308,-1354,-1061,1610,2025-01-27 13:55:54,0.0
15476,84,112,-1066,-1682,2367,2025-01-27 13:55:54,0.0
16652,16,-2460,-1512,-1250,2852,2025-01-27 13:55:54,0.0
17704,-308,-2400,-2681,-946,2600,2025-01-27 13:55:54,0.0
17792,-692,-280,-3781,-1399,1789,2025-01-27 13:55:54,0.0
19332,-1084,1596,-4620,-1413,959,2025-01-27 13:55:54,0.0
20760,-2576,3732,-5135,125,241,2025-01-27 13:55:54,0.0
22812,-3816,2212,-5313,2046,-588,2025-01-27 13:55:54,0.0
29848,-1596,-1800,-6104,6421,-4167,2025-01-27 13:55:54,0.0
31536,384,-3980,-4687,11781,-10598,2025-01-27 13:55:54,0.0
25376,2148,-4704,-4580,11405,-12945,2025-01-27 13:55:54,0.0
21668,2220,888,-5901,5416,-10026,2025-01-27 13:55:54,0.0
21304,-52,5268,-6732,-1675,-3888,2025-01-27 13:55:54,0.0
27284,3500,6904,-6739,-2805,-2051,2025-01-27 13:55:54,0.0
28536,6008,11088,-3930,-2263,-4030,2025-01-27 13:55:54,0.0
25036,8432,10308,-130,-4323,-5582,2025-01-27 13:55:54,0.0
17072,5768,10736,3521,-8946,-2277,2025-01-27 13:55:54,0.0
14672,968,10552,8379,-13241,848,2025-01-27 13:55:54,0.0
13776,-1924,6936,8699,-14940,2476,2025-01-27 13:55:54,0.0
15948,-4312,4696,4034,-10596,2399,2025-01-27 13:55:54,0.0
16884,-6224,5108,609,-1812,570,2025-01-27 13:55:54,0.0
14936,-5556,5640,257,8939,378,2025-01-27 13:55:54,0.0
14632,-1452,6008,1219,14953,2678,2025-01-27 13:55:54,0.0
17432,2744,5444,2932,16812,5253,2025-01-27 13:55:54,0.0
20908,4864,5016,4759,14253,5563,2025-01-27 13:55:54,0.0
20432,3324,4748,6145,7452,5279,2025-01-27 13:55:54,0.0
17688,-196,5256,6620,-449,6393,2025-01-27 13:55:54,0.0
16268,-1688,5048,6391,-7019,6731,2025-01-27 13:55:54,0.0
14980,-3036,4008,5742,-11104,5930,2025-01-27 13:55:54,0.0
13260,-4400,3704,5394,-11675,5025,2025-01-27 13:55:54,0.0
13928,-5004,1984,6021,-6097,2682,2025-01-27 13:55:54,0.0
11876,-4092,3624,5702,2991,2577,2025-01-27 13:55:54,0.0
12204,-3668,4376,6180,7533,3123,2025-01-27 13:55:54,0.0
15416,-2724,1296,6254,7234,3218,2025-01-27 13:55:54,0.0
17532,-1960,-1432,4739,4375,2269,2025-01-27 13:55:54,0.0
18240,-1740,-2220,2995,1257,524,2025-01-27 13:55:54,0.0
17348,-2536,-560,2137,-100,-1462,2025-01-27 13:55:54,0.0
16656,-2524,496,2201,268,-2445,2025-01-27 13:55:54,0.0
16196,-1856,1032,2722,1264,-2411,2025-01-27 13:55:54,0.0
16740,-1564,1228,3599,1836,-2142,2025-01-27 13:55:54,0.0
17324,-1360,1888,4433,1368,-1797,2025-01-27 13:55:54,0.0
18068,-1624,3120,4969,1149,-1450,2025-01-27 13:55:54,0.0
21284,-1480,1244,5457,6627,160,2025-01-27 13:55:55,0.0
20952,-5736,-2024,4982,7535,3546,2025-01-27 13:55:55,0.0
23696,-8276,-2660,4921,6232,7481,2025-01-27 13:55:55,0.0
27936,-6760,-548,4233,3918,7690,2025-01-27 13:55:55,0.0
19032,-604,-1860,-2379,-1151,1886,2025-01-27 13:55:55,0.0
21244,-580,-220,-3690,-375,360,2025-01-27 13:55:55,0.0
23676,-2364,1048,-4328,1033,-873,2025-01-27 13:55:55,0.0
25676,-3900,60,-4735,2213,-1799,2025-01-27 13:55:55,0.0
30792,-2992,-2144,-5312,3561,-4574,2025-01-27 13:55:55,0.0
29308,-788,-2092,-3953,4835,-9423,2025-01-27 13:55:55,0.0
22068,1776,-4548,-4781,2294,-9833,2025-01-27 13:55:55,0.0
19872,1448,-908,-6201,-1386,-7450,2025-01-27 13:55:55,0.0
20204,-2780,3524,-6065,-1367,-4140,2025-01-27 13:55:55,0.0
25824,1468,5284,-6971,1175,-2066,2025-01-27 13:55:55,0.0
29740,4336,11984,-5824,1627,-5674,2025-01-27 13:55:55,0.0
27896,6088,16832,-1594,155,-9508,2025-01-27 13:55:55,0.0
18812,7976,16716,3475,-4794,-9225,2025-01-27 13:55:55,0.0
14320,6740,12284,6571,-9747,-4461,2025-01-27 13:55:55,0.0
14512,344,8156,8843,-11839,313,2025-01-27 13:55:55,0.0
15136,-3504,1616,5670,-7885,3454,2025-01-27 13:55:55,0.0
17220,-5248,2552,297,-1256,4534,2025-01-27 13:55:55,0.0
17920,-4564,5320,-309,4668,4565,2025-01-27 13:55:55,0.0
17184,-1096,7348,1160,8050,5391,2025-01-27 13:55:55,0.0
17248,2664,6528,2377,8535,6880,2025-01-27 13:55:55,0.0
18920,4476,5960,3680,6474,7109,2025-01-27 13:55:55,0.0
19392,3144,5496,5499,3651,6058,2025-01-27 13:55:55,0.0
16792,-316,4988,6799,633,5567,2025-01-27 13:55:55,0.0
14180,-2020,3292,6008,-2869,5983,2025-01-27 13:55:55,0.0
13164,-3396,3240,4559,-5943,6349,2025-01-27 13:55:55,0.0
13552,-4724,3328,3919,-6677,5709,2025-01-27 13:55:55,0.0
14428,-5236,2296,4293,-2790,3262,2025-01-27 13:55:55,0.0
12888,-3260,1960,3808,2634,2633,2025-01-27 13:55:55,0.0
14308,-2316,3888,4239,6433,2646,2025-01-27 13:55:55,0.0
15236,-1352,2868,4917,6870,2700,2025-01-27 13:55:55,0.0
16268,-1036,432,4509,4216,2387,2025-01-27 13:55:56,0.0
16808,-1196,-636,3417,1645,1314,2025-01-27 13:55:56,
16780,-1592,-452,2310,512,-366,2025-01-27 13:55:56,0.0
15836,-2084,1132,1930,732,-1493,2025-01-27 13:55:56,0.0
15644,-2096,2320,2401,2279,-1935,2025-01-27 13:55:56,0.0
16792,-876,2180,3038,4501,-1863,2025-01-27 13:55:56,0.0
18628,-460,1992,4232,6607,-1691,2025-01-27 13:55:56,0.0
20056,-1316,1616,5140,6443,-843,2025-01-27 13:55:56,0.0
21700,-2052,1204,5232,4392,476,2025-01-27 13:55:56,0.0
23092,-2780,492,4397,1470,1292,2025-01-27 13:55:56,0.0
22952,-4688,-1236,3262,-498,2355,2025-01-27 13:55:56,0.0
22460,-6356,-1048,2677,-2062,4888,2025-01-27 13:55:56,0.0
24064,-7336,1112,2916,-2422,6858,2025-01-27 13:55:56,0.0
26656,-4352,4096,2093,280,7083,2025-01-27 13:55:56,0.0
26440,-3300,6016,1663,2424,6746,2025-01-27 13:55:56,0.0
23556,-5768,2668,1282,553,7580,2025-01-27 13:55:56,0.0
25752,-7800,2560,-1289,-3095,7706,2025-01-27 13:55:56,0.0
27712,-8772,4656,-2930,-5958,5923,2025-01-27 13:55:56,0.0
28764,-7140,6832,-4415,-8862,1882,2025-01-27 13:55:56,0.0
24496,-2300,9420,-5849,-13042,-2923,2025-01-27 13:55:56,0.0
18960,764,11104,-5691,-14761,-6269,2025-01-27 13:55:56,0.0
13788,3404,11444,-5052,-14093,-6508,2025-01-27 13:55:56,0.0
11704,5288,9540,-3822,-9025,-4268,2025-01-27 13:55:56,0.0
14016,3820,6328,-1203,735,-2859,2025-01-27 13:55:56,0.0
16516,-1064,4076,1473,12360,-3462,2025-01-27 13:55:56,0.0
18320,-5900,1728,664,19918,-3769,2025-01-27 13:55:56,0.0
19176,-7904,1888,-1350,17718,-4052,2025-01-27 13:55:56,0.0
21120,-5360,2084,-3108,10496,-5505,2025-01-27 13:55:56,0.0
19304,-2092,2512,-4469,2985,-6911,2025-01-27 13:55:56,0.0
16320,148,2516,-5663,-3650,-6453,2025-01-27 13:55:56,0.0
13860,1292,4752,-5952,-8216,-5133,2025-01-27 13:55:56,0.0
12976,2536,4548,-5388,-9551,-4275,2025-01-27 13:55:56,0.0
12836,3216,3484,-4857,-8221,-3830,2025-01-27 13:55:56,0.0
12576,2536,3128,-4469,-4310,-3591,2025-01-27 13:55:56,0.0
11748,1372,3400,-3901,497,-3175,2025-01-27 13:55:56,0.0
13104,764,3160,-2888,3615,-2664,2025-01-27 13:55:56,0.0
14400,704,1856,-1693,4579,-2081,2025-01-27 13:55:56,0.0
15212,848,920,-767,3741,-1142,2025-01-27 13:55:56,0.0
15388,892,1240,-218,1823,180,2025-01-27 13:55:56,0.0
16028,36,832,117,-8,1631,2025-01-27 13:55:56,0.0
16824,-1048,-1452,-10,-922,2441,2025-01-27 13:55:56,0.0
17208,-1992,-2800,-1370,-1309,2940,2025-01-27 13:55:56,0.0
18468,-2136,-1780,-3157,-1589,2758,2025-01-27 13:55:56,0.0
19428,-1448,-704,-4642,-1768,2571,2025-01-27 13:55:56,0.0
21660,-1148,1264,-5241,-523,2060,2025-01-27 13:55:56,0.0
25076,-1372,2112,-5063,1927,579,2025-01-27 13:55:56,0.0
29756,-832,408,-5230,4328,-2911,2025-01-27 13:55:56,0.0
30936,-352,-896,-4054,6451,-8783,2025-01-27 13:55:56,0.0
25540,916,-4940,-3759,4879,-11284,2025-01-27 13:55:56,0.0
20664,1516,-3280,-4394,1898,-9055,2025-01-27 13:55:56,0.0
21276,-1440,1956,-4467,173,-5838,2025-01-27 13:55:56,0.0
24184,-2136,2248,-5387,485,-1454,2025-01-27 13:55:56,0.0
29824,2440,7448,-6060,-537,-3310,2025-01-27 13:55:57,0.0
28964,5920,13932,-3334,-3263,-7159,2025-01-27 13:55:57,0.0
22240,8940,15956,841,-8043,-9228,2025-01-27 13:55:57,0.0
12960,8040,13196,4362,-13129,-5419,2025-01-27 13:55:57,0.0
11920,2012,9804,8226,-14902,-221,2025-01-27 13:55:57,0.0
13948,-1908,3264,8309,-10632,2586,2025-01-27 13:55:57,0.0
16596,-3880,-504,3119,-1961,3195,2025-01-27 13:55:57,0.0
18316,-2824,7528,-562,10941,4197,2025-01-27 13:55:57,0.0
20160,1004,6172,1312,10315,5843,2025-01-27 13:55:57,0.0
25112,-664,1644,3135,-2838,1756,2025-01-27 13:55:57,0.0
24168,-620,4544,4455,-1064,3009,2025-01-27 13:55:57,0.0
22564,-4736,2360,3520,-193,3861,2025-01-27 13:55:57,0.0
20660,-8132,5204,-393,-3536,6338,2025-01-27 13:55:57,0.0
23576,-10476,8544,-1843,-9047,6589,2025-01-27 13:55:57,0.0
26036,-8836,7576,-2813,-11803,877,2025-01-27 13:55:57,0.0
18584,-3072,7316,-6604,-11465,-1715,2025-01-27 13:55:57,0.0
15460,1108,10320,-7234,-8532,-1829,2025-01-27 13:55:57,0.0
14668,4568,11828,-4744,-3676,-1252,2025-01-27 13:55:57,0.0
17760,4832,9056,-780,3038,-1580,2025-01-27 13:55:57,0.0
20852,808,4984,1079,10394,-3212,2025-01-27 13:55:57,0.0
22388,-4156,1556,-100,13221,-5051,2025-01-27 13:55:57,0.0
22180,-8124,1824,-3524,7742,-5659,2025-01-27 13:55:57,0.0
20888,-6528,3292,-5638,1186,-5483,2025-01-27 13:55:57,0.0
17556,-3228,3364,-6900,-3091,-5906,2025-01-27 13:55:57,0.0
15284,-424,3196,-7712,-6230,-5764,2025-01-27 13:55:57,0.0
13212,1140,4236,-8099,-8502,-5217,2025-01-27 13:55:57,0.0
12900,1692,4388,-7853,-7954,-5278,2025-01-27 13:55:57,0.0
11876,2168,3188,-7645,-3737,-5286,2025-01-27 13:55:57,0.0
11400,1824,2844,-7587,908,-4363,2025-01-27 13:55:57,0.0
12788,904,3164,-7044,3844,-3393,2025-01-27 13:55:57,0.0
14060,96,2616,-6466,4436,-2773,2025-01-27 13:55:57,0.0
15244,-208,1892,-5640,3821,-2251,2025-01-27 13:55:57,0.0
14260,192,864,-4333,2229,-600,2025-01-27 13:55:57,0.0
14320,296,388,-3272,630,1324,2025-01-27 13:55:57,0.0
14964,-372,364,-2494,-971,2686,2025-01-27 13:55:57,0.0
15948,-884,-1468,-2531,-2015,3553,2025-01-27 13:55:57,0.0
17184,-808,-780,-3394,-2307,3727,2025-01-27 13:55:57,0.0
18516,100,688,-4179,-2030,3191,2025-01-27 13:55:57,0.0
19880,944,2584,-4541,-1432,2361,2025-01-27 13:55:57,0.0
21788,456,2932,-4268,-240,935,2025-01-27 13:55:57,0.0
23540,-1516,1048,-4117,1620,-387,2025-01-27 13:55:57,0.0
27908,-2200,-720,-4066,5274,-2713,2025-01-27 13:55:57,0.0
28024,-1732,-2108,-3210,8455,-6312,2025-01-27 13:55:57,0.0
25416,-1064,-4880,-4095,7196,-7873,2025-01-27 13:55:57,0.0
21744,-1204,-5092,-6172,2334,-6935,2025-01-27 13:55:57,0.0
21296,-1660,-2208,-6798,-1874,-4677,2025-01-27 13:55:58,0.0
22492,-2556,540,-6585,-1169,-3334,2025-01-27 13:55:58,0.0
25104,-1132,1576,-8272,2356,-1848,2025-01-27 13:55:58,0.0
29676,1612,7344,-8038,3248,-5506,2025-01-27 13:55:58,0.0
28640,4088,11716,-5057,184,-9614,2025-01-27 13:55:58,
21552,7400,13136,-1186,-6427,-9743,2025-01-27 13:55:58,0.0
13172,7640,11864,2126,-13097,-4058,2025-01-27 13:55:58,0.0
16912,-2188,1080,2344,693,-1802,2025-01-27 13:55:58,0.0
17352,-944,2132,2852,1476,-1835,2025-01-27 13:55:58,0.0
18320,-464,3144,3596,2287,-2043,2025-01-27 13:55:58,0.0
18692,-1284,3476,4650,2745,-1630,2025-01-27 13:55:58,0.0
19916,-1868,2148,5580,2724,-252,2025-01-27 13:55:58,0.0
21912,-1972,-32,5515,3164,760,2025-01-27 13:55:58,0.0
22832,-3072,-1432,4378,3855,1707,2025-01-27 13:55:58,0.0
22680,-5332,-1404,3314,3104,3558,2025-01-27 13:55:58,0.0
23760,-6392,-712,3259,314,5059,2025-01-27 13:55:58,0.0
26860,-4620,-92,3500,-1353,4226,2025-01-27 13:55:58,0.0
26672,-1956,3812,3072,658,3763,2025-01-27 13:55:58,0.0
24608,-2192,4968,3578,685,4809,2025-01-27 13:55:58,0.0
22448,-5516,3176,1607,-1481,6543,2025-01-27 13:55:58,0.0
23240,-8988,5492,-1653,-5191,8111,2025-01-27 13:55:58,0.0
27604,-10740,6668,-2802,-8815,5323,2025-01-27 13:55:58,0.0
24584,-5876,4808,-4997,-9990,-1101,2025-01-27 13:55:58,0.0
18800,-2900,8480,-7597,-12584,-3425,2025-01-27 13:55:58,0.0
15020,552,11152,-6702,-11892,-3970,2025-01-27 13:55:58,0.0
12148,3764,11060,-4548,-8494,-2221,2025-01-27 13:55:58,0.0
16116,5112,7468,-2033,-261,-1383,2025-01-27 13:55:58,0.0
19212,896,5724,-104,9903,-3151,2025-01-27 13:55:58,0.0
20376,-3652,2684,-689,15193,-4668,2025-01-27 13:55:58,0.0
19596,-7188,2168,-2308,12765,-4233,2025-01-27 13:55:58,0.0
21620,-6164,2576,-4041,7452,-4410,2025-01-27 13:55:58,0.0
20760,-3676,2872,-5142,1459,-5503,2025-01-27 13:55:58,0.0
17548,-1596,3152,-5763,-2815,-5685,2025-01-27 13:55:58,0.0
15260,96,3140,-6196,-6670,-4942,2025-01-27 13:55:58,0.0
13788,1188,3704,-5896,-7777,-4801,2025-01-27 13:55:58,0.0
13592,1748,2104,-5959,-4769,-5469,2025-01-27 13:55:58,0.0
13596,1524,1088,-6502,-577,-5532,2025-01-27 13:55:58,0.0
14388,528,2200,-6601,2136,-5387,2025-01-27 13:55:58,0.0
15080,-788,2984,-6061,2439,-5237,2025-01-27 13:55:58,0.0
13508,-764,2348,-5240,911,-3828,2025-01-27 13:55:58,0.0
13300,-8,1548,-3938,105,-1908,2025-01-27 13:55:58,0.0
13132,672,236,-2784,388,-205,2025-01-27 13:55:58,0.0
13340,96,-320,-2334,826,986,2025-01-27 13:55:59,0.0
14652,-296,-1404,-2125,652,1962,2025-01-27 13:55:59,0.0
15184,-1076,-2100,-2748,926,3003,2025-01-27 13:55:59,0.0
16600,-1760,-1848,-3986,1536,3601,2025-01-27 13:55:59,0.0
18296,-2032,-1136,-5312,1808,3586,2025-01-27 13:55:59,0.0
19904,-1416,-696,-6491,1182,3029,2025-01-27 13:55:59,0.0
19556,-2080,2876,2614,2674,-343,2025-01-27 13:55:59,0.0
20224,-3188,760,2420,5380,1566,2025-01-27 13:55:59,0.0
21640,-5068,-1968,1446,7511,3474,2025-01-27 13:55:59,0.0
24028,-6268,-3008,1156,7525,4721,2025-01-27 13:55:59,0.0
26412,-4300,60,895,7538,5098,2025-01-27 13:55:59,0.0
27100,-2348,5584,134,6131,7156,2025-01-27 13:55:59,0.0
27236,-4884,7588,-125,684,8306,2025-01-27 13:55:59,0.0
26612,-9604,6192,-2271,-5667,8384,2025-01-27 13:55:59,0.0
28348,-12864,4924,-4204,-9665,6767,2025-01-27 13:55:59,0.0
29836,-9608,2240,-5586,-10807,2331,2025-01-27 13:55:59,0.0
23992,-4200,4060,-8183,-12677,-805,2025-01-27 13:55:59,0.0
21196,-1320,9196,-8980,-15253,-3839,2025-01-27 13:55:59,0.0
17560,1084,13072,-7524,-15240,-6744,2025-01-27 13:55:59,0.0
13192,3824,12512,-5877,-12157,-6278,2025-01-27 13:55:59,0.0
10832,5428,8852,-4281,-6536,-3269,2025-01-27 13:55:59,0.0
13932,2836,5228,-2240,2708,-1163,2025-01-27 13:55:59,0.0
15776,-1668,4240,-817,10719,-1582,2025-01-27 13:55:59,0.0
17416,-5480,2920,-1870,15092,-1864,2025-01-27 13:55:59,0.0
19504,-7412,2712,-3847,15443,-2600,2025-01-27 13:55:59,0.0
19144,-1660,5168,-5964,4065,-4991,2025-01-27 13:55:59,0.0
18412,204,5028,-6243,-408,-5325,2025-01-27 13:56:00,0.0
16468,1404,4924,-6691,-3932,-5409,2025-01-27 13:56:00,0.0
15308,2236,4100,-6758,-6528,-5262,2025-01-27 13:56:00,0.0
14780,2648,3472,-6522,-6857,-5066,2025-01-27 13:56:00,0.0
13680,2220,3040,-6281,-5010,-4661,2025-01-27 13:56:00,0.0
13480,-232,2940,-5694,298,-3650,2025-01-27 13:56:00,0.0
14088,-980,2028,-5436,1735,-2864,2025-01-27 13:56:00,0.0
14828,-688,628,-4749,1644,-1788,2025-01-27 13:56:00,0.0
15148,356,556,-3976,613,-220,2025-01-27 13:56:00,0.0
14936,584,756,-3134,-459,1531,2025-01-27 13:56:00,0.0
19568,-4160,2600,2335,-4168,4465,2025-01-27 13:56:00,0.0
18220,-5928,4808,-400,5343,1679,2025-01-27 13:56:00,0.0
16372,-3772,6252,252,11127,1516,2025-01-27 13:56:00,0.0
16752,1336,5640,1744,12781,3646,2025-01-27 13:56:00,0.0
19468,4932,4840,3454,11809,5232,2025-01-27 13:56:00,0.0
20292,4364,4840,5364,8219,5635,2025-01-27 13:56:00,0.0
17708,644,4248,6623,2181,7131,2025-01-27 13:56:00,0.0
16816,-1748,3428,6637,-4474,8150,2025-01-27 13:56:00,0.0
14884,-2740,4884,5788,-9860,7676,2025-01-27 13:56:00,0.0
15820,-4536,3372,5210,-11396,4225,2025-01-27 13:56:00,0.0
13028,-3980,1152,4411,-3879,1771,2025-01-27 13:56:00,0.0
11444,-3176,2620,4125,2483,2137,2025-01-27 13:56:00,0.0
13512,-2440,4084,5353,7008,2180,2025-01-27 13:56:00,0.0
15420,-1144,1644,5930,7277,2240,2025-01-27 13:56:00,0.0
17424,-304,308,5633,4985,1710,2025-01-27 13:56:00,0.0
18500,-796,-988,5053,2212,471,2025-01-27 13:56:00,0.0
18192,-1892,-1720,4367,988,-932,2025-01-27 13:56:00,0.0
17164,-2748,-1500,4020,232,-1764,2025-01-27 13:56:00,0.0
16296,-2984,-768,3951,-727,-1795,2025-01-27 13:56:00,0.0
16892,-2576,-292,4222,-1448,-1656,2025-01-27 13:56:00,0.0
17324,-2020,1616,4433,-1857,-1457,2025-01-27 13:56:00,0.0
16916,-2012,3096,4379,-1702,-1263,2025-01-27 13:56:00,0.0
16732,-1628,4088,4396,-432,-497,2025-01-27 13:56:00,0.0
17540,-1464,1904,5128,3922,1242,2025-01-27 13:56:00,0.0
19752,-3204,-1636,5105,9242,3097,2025-01-27 13:56:00,0.0
22548,-5896,-3416,5584,12647,6331,2025-01-27 13:56:00,0.0
26432,-6092,-2952,5168,9769,7564,2025-01-27 13:56:00,
29628,-5328,2216,3959,5664,5806,2025-01-27 13:56:00,0.0
28880,-4512,7080,3297,3133,4918,2025-01-27 13:56:00,0.0
24708,-6088,2568,1717,-3884,5508,2025-01-27 13:56:00,0.0
22940,-9220,380,-1798,-9184,6423,2025-01-27 13:56:00,0.0
25540,-10264,3544,-3578,-10848,5184,2025-01-27 13:56:00,0.0
24624,-5128,4852,-4431,-10876,1796,2025-01-27 13:56:00,0.0
22320,-1624,8352,-6326,-12058,531,2025-01-27 13:56:00,0.0
20756,600,11532,-5951,-13438,-1353,2025-01-27 13:56:00,0.0
17648,2964,11248,-4355,-10861,-2703,2025-01-27 13:56:01,0.0
15376,5248,9568,-2791,-5629,-2589,2025-01-27 13:56:01,0.0
17112,4540,5996,-1075,2362,-2719,2025-01-27 13:56:01,0.0
18420,-864,4788,996,10477,-3455,2025-01-27 13:56:01,0.0
19076,-5072,2200,862,14667,-3631,2025-01-27 13:56:01,0.0
20440,-7620,1452,-660,14231,-3716,2025-01-27 13:56:01,0.0
21444,-6536,1372,-2701,9235,-4551,2025-01-27 13:56:01,0.0
19944,-3596,2920,-4246,3043,-5564,2025-01-27 13:56:01,0.0
16220,-928,3516,-5414,-4032,-5707,2025-01-27 13:56:01,0.0
13780,372,3952,-5616,-8207,-4995,2025-01-27 13:56:01,0.0
13128,1472,3340,-5530,-9315,-4640,2025-01-27 13:56:01,0.0
12828,2128,2540,-5474,-6358,-4893,2025-01-27 13:56:01,0.0
12536,1704,1952,-5577,-608,-4752,2025-01-27 13:56:01,0.0
12680,356,2336,-5151,4254,-3373,2025-01-27 13:56:01,0.0
14088,136,1524,-4347,5175,-2279,2025-01-27 13:56:01,0.0
15332,32,1084,-3641,3978,-1772,2025-01-27 13:56:01,0.0
15300,280,788,-2971,2077,-800,2025-01-27 13:56:01,0.0
14720,304,848,-2254,409,860,2025-01-27 13:56:01,0.0
14940,-344,432,-1886,-366,2000,2025-01-27 13:56:01,0.0
14952,-724,-916,-2181,-404,2511,2025-01-27 13:56:01,0.0
15500,-1524,-468,-2768,546,2687,2025-01-27 13:56:01,0.0
16860,-1548,-144,-3472,2195,2400,2025-01-27 13:56:01,0.0
23400,-1928,288,-5195,5748,170,2025-01-27 13:56:01,0.0
26764,-1868,-72,-5790,6070,-1444,2025-01-27 13:56:01,0.0
31148,-808,1812,-5313,6614,-5762,2025-01-27 13:56:01,0.0
27840,1568,556,-3354,4788,-9369,2025-01-27 13:56:01,0.0
23812,3656,-1576,-3101,942,-9212,2025-01-27 13:56:01,0.0
24356,2000,-1100,-4201,-1509,-7714,2025-01-27 13:56:01,0.0
25672,-1652,2116,-4470,-1497,-6527,2025-01-27 13:56:01,0.0
26048,-652,3976,-4294,-939,-5323,2025-01-27 13:56:01,0.0
16640,5696,9380,2800,-10650,-4893,2025-01-27 13:56:01,0.0
11924,1248,9948,5947,-17101,818,2025-01-27 13:56:01,0.0
11884,-984,7444,7383,-18630,4164,2025-01-27 13:56:01,0.0
16732,-2072,24,1901,1047,-652,2025-01-27 13:56:01,0.0
16544,-2544,432,1644,1441,-1400,2025-01-27 13:56:01,0.0
16552,-2620,428,1753,1673,-1802,2025-01-27 13:56:01,0.0
16476,-2048,-204,1800,1648,-1837,2025-01-27 13:56:01,0.0
16536,-1768,360,1810,221,-1626,2025-01-27 13:56:01,0.0
17384,-1692,1924,1684,-893,-1911,2025-01-27 13:56:02,0.0
17800,-1696,3640,1887,-430,-2005,2025-01-27 13:56:02,0.0
18624,-1300,4508,2598,1951,-1343,2025-01-27 13:56:02,0.0
20064,-464,3392,2911,4517,-603,2025-01-27 13:56:02,0.0
20004,-2496,28,2774,5216,852,2025-01-27 13:56:02,0.0
20908,-5376,-2808,2670,5188,3561,2025-01-27 13:56:02,0.0
23476,-6892,-3980,3154,4833,6118,2025-01-27 13:56:02,0.0
26924,-5744,-2616,2643,5817,6478,2025-01-27 13:56:02,0.0
29172,-3672,2708,1094,7268,5577,2025-01-27 13:56:02,0.0
24524,-7532,4676,-1486,-4885,4837,2025-01-27 13:56:02,0.0
26336,-9368,5556,-3024,-7266,4594,2025-01-27 13:56:02,0.0
26516,-8056,4940,-4028,-8209,1909,2025-01-27 13:56:02,0.0
22352,-4764,6896,-6391,-10812,424,2025-01-27 13:56:02,0.0
19468,-844,9464,-6974,-15551,-888,2025-01-27 13:56:02,0.0
17580,1716,9376,-6287,-17546,-2845,2025-01-27 13:56:02,0.0
14396,4276,8280,-5882,-13688,-3996,2025-01-27 13:56:02,0.0
11944,4972,7880,-5606,-7702,-3363,2025-01-27 13:56:02,0.0
14868,1328,7424,-3435,2770,-2967,2025-01-27 13:56:02,0.0
15852,-3108,6036,-1457,12285,-3079,2025-01-27 13:56:02,0.0
17068,-6592,2616,-1777,17748,-2931,2025-01-27 13:56:02,0.0
19264,-7232,740,-3440,17877,-3132,2025-01-27 13:56:02,0.0
14252,1484,3860,-8284,-9902,-3985,2025-01-27 13:56:02,0.0
13096,1308,3844,-8529,-7008,-3886,2025-01-27 13:56:02,0.0
12592,528,3636,-8202,-1249,-3623,2025-01-27 13:56:02,0.0
12544,36,2608,-7457,2777,-2778,2025-01-27 13:56:02,0.0
14056,320,1664,-6418,4770,-2026,2025-01-27 13:56:02,0.0
25144,4404,14404,-4292,-6203,-8519,2025-01-27 13:56:03,0.0
16108,7228,13736,-889,-10689,-6295,2025-01-27 13:56:04,0.0
10804,6176,12260,1411,-14149,-928,2025-01-27 13:56:04,0.0
14332,2280,8416,3032,-12613,1661,2025-01-27 13:56:04,0.0
17240,-1276,3244,680,-5891,663,2025-01-27 13:56:04,0.0
17768,-3712,3604,-2773,3936,-608,2025-01-27 13:56:04,0.0
16912,-3860,6472,-3426,11067,76,2025-01-27 13:56:04,0.0
17148,-2184,7892,-1571,13896,2377,2025-01-27 13:56:04,0.0
17696,-2300,392,-668,2085,-2344,2025-01-27 13:56:04,0.0
18432,-1668,1376,-609,1477,-2577,2025-01-27 13:56:04,0.0
16108,-892,644,-9066,-1024,1544,2025-01-27 13:56:04,0.0
17484,384,-144,-8770,466,1193,2025-01-27 13:56:04,0.0
18788,2020,476,-7993,565,711,2025-01-27 13:56:04,0.0
21052,2952,1064,-7316,78,165,2025-01-27 13:56:04,0.0
22744,1360,2880,-6728,-714,-758,2025-01-27 13:56:04,0.0
23392,348,3880,-6206,-1903,-2072,2025-01-27 13:56:04,0.0
26048,144,1340,-5725,-1314,-3733,2025-01-27 13:56:04,0.0
26448,-76,-3432,-5354,1699,-6848,2025-01-27 13:56:05,0.0
22684,-3000,-8476,-6962,3106,-8017,2025-01-27 13:56:05,0.0
18944,-7720,-6496,-8787,2217,-6382,2025-01-27 13:56:05,0.0
19796,-12340,-2032,-10981,-200,-3766,2025-01-27 13:56:05,0.0
20524,-9800,56,-15383,-2920,-74,2025-01-27 13:56:05,0.0
25048,-2316,8780,-16081,-4684,642,2025-01-27 13:56:05,0.0
26072,3872,13428,-11842,-4183,-1301,2025-01-27 13:56:05,0.0
24280,8528,13992,-7187,-2750,-2871,2025-01-27 13:56:05,0.0
18992,11684,11192,-3945,-1123,-3035,2025-01-27 13:56:05,0.0
14704,7924,8612,-2612,-1250,-1458,2025-01-27 13:56:05,0.0
15124,1644,4796,-2537,-100,-613,2025-01-27 13:56:05,
15568,-3176,2944,-4727,2565,51,2025-01-27 13:56:05,0.0
14624,-6384,6636,-6427,5395,1658,2025-01-27 13:56:05,0.0
16736,-7304,8272,-6003,6801,5182,2025-01-27 13:56:05,0.0
20112,-6244,7648,-3938,6624,6549,2025-01-27 13:56:05,0.0
22116,472,3128,-3855,5805,5101,2025-01-27 13:56:05,0.0
22464,2080,4256,-3430,5095,3016,2025-01-27 13:56:05,0.0
18136,124,2788,-2291,4748,3480,2025-01-27 13:56:05,0.0
16216,-1068,2336,-3506,923,5359,2025-01-27 13:56:05,0.0
15944,-2480,3744,-4519,-4389,5889,2025-01-27 13:56:05,0.0
15128,-3488,4004,-5140,-7935,5779,2025-01-27 13:56:05,0.0
14952,-4500,4256,-5015,-8272,5299,2025-01-27 13:56:05,0.0
16456,-4356,2120,-4477,-4362,2846,2025-01-27 13:56:05,0.0
14268,-2776,840,-5646,2359,1706,2025-01-27 13:56:05,0.0
14684,-2096,2860,-6049,5066,1324,2025-01-27 13:56:05,0.0
15732,-1508,2128,-5981,4172,626,2025-01-27 13:56:05,0.0
16300,-1784,1176,-6064,2731,300,2025-01-27 13:56:05,0.0
16772,-2320,752,-6096,2022,-57,2025-01-27 13:56:05,0.0
16796,-3160,1156,-5921,2075,-411,2025-01-27 13:56:05,0.0
17148,-3896,1164,-5653,2214,-737,2025-01-27 13:56:05,0.0
16920,-3968,2248,-5273,2320,-934,2025-01-27 13:56:05,0.0
16952,-3132,2088,-4790,2249,-978,2025-01-27 13:56:05,0.0
17828,-2356,1148,-3815,2402,-846,2025-01-27 13:56:05,0.0
17348,696,9056,-9189,-13746,575,2025-01-27 13:56:05,0.0
18024,2200,7352,-8982,-11159,-1206,2025-01-27 13:56:05,0.0
16388,2976,8000,-8277,-3955,-3051,2025-01-27 13:56:05,0.0
16292,1232,9348,-6438,2868,-3641,2025-01-27 13:56:05,0.0
18940,-2152,7272,-4794,8046,-4535,2025-01-27 13:56:05,0.0
20000,-4880,3496,-4824,11400,-5294,2025-01-27 13:56:05,0.0
19820,-7068,1408,-6590,10981,-5110,2025-01-27 13:56:05,0.0
20896,-6244,1788,-9276,5728,-4685,2025-01-27 13:56:05,0.0
20312,-3584,4196,-10424,-329,-5276,2025-01-27 13:56:05,0.0
17044,-1244,4516,-11144,-4723,-5253,2025-01-27 13:56:05,0.0
14536,-220,4436,-11445,-7210,-4226,2025-01-27 13:56:06,0.0
13476,484,4472,-11631,-7580,-3313,2025-01-27 13:56:06,0.0
13060,1080,4456,-11537,-5585,-3189,2025-01-27 13:56:06,0.0
14116,1224,3188,-11403,-1114,-3762,2025-01-27 13:56:06,0.0
13920,736,2928,-11195,3233,-3946,2025-01-27 13:56:06,0.0
14588,-500,2448,-10815,5480,-3485,2025-01-27 13:56:06,0.0
15812,-1364,1528,-10356,5080,-2412,2025-01-27 13:56:06,0.0
16828,-1804,900,-9984,2560,-1217,2025-01-27 13:56:06,0.0
16168,-1884,836,-9412,-272,392,2025-01-27 13:56:06,0.0
15200,-1272,308,-8864,-1686,2329,2025-01-27 13:56:06,0.0
15876,-1148,1004,-8450,-1186,2947,2025-01-27 13:56:06,0.0
16572,-1004,1056,-8818,100,2825,2025-01-27 13:56:06,0.0
17108,316,480,-8709,1224,2343,2025-01-27 13:56:06,0.0
19028,1768,500,-8341,1374,2092,2025-01-27 13:56:06,0.0
21904,1328,996,-7672,1594,1628,2025-01-27 13:56:06,0.0
23756,-1240,1764,-7022,1939,546,2025-01-27 13:56:06,0.0
25224,-2252,780,-6937,1875,-884,2025-01-27 13:56:06,0.0
27152,-824,-456,-7210,1704,-3318,2025-01-27 13:56:06,0.0
26780,892,-1564,-5965,2257,-6586,2025-01-27 13:56:06,0.0
24012,1752,-4368,-5529,1698,-8217,2025-01-27 13:56:06,0.0
22360,-340,-2844,-5572,774,-7806,2025-01-27 13:56:06,0.0
23932,-4132,-1144,-6804,71,-6731,2025-01-27 13:56:06,0.0
26156,-4176,1240,-9792,-1676,-6244,2025-01-27 13:56:06,0.0
26972,-1476,7992,-10175,-4041,-6690,2025-01-27 13:56:06,0.0
23548,844,12764,-7273,-7127,-6064,2025-01-27 13:56:06,0.0
16348,2848,13776,-3453,-11679,-1519,2025-01-27 13:56:06,0.0
13432,2600,13416,695,-15538,3078,2025-01-27 13:56:06,0.0
15312,3132,8164,1602,-14636,3249,2025-01-27 13:56:06,0.0
16956,408,2932,-1526,-6851,114,2025-01-27 13:56:06,0.0
15888,-2908,1872,-4968,6892,-1782,2025-01-27 13:56:06,0.0
13688,-3672,3800,-6247,16226,55,2025-01-27 13:56:06,0.0
14864,-2484,4528,-5496,19069,3478,2025-01-27 13:56:06,0.0
18792,-244,4620,-4172,15218,6428,2025-01-27 13:56:06,0.0
24872,132,7008,-1621,9159,6198,2025-01-27 13:56:06,0.0
22284,-2324,5392,723,3609,4954,2025-01-27 13:56:06,0.0
18076,-3040,2524,-1184,-2715,5644,2025-01-27 13:56:06,0.0
16704,-3032,1940,-2662,-8550,5666,2025-01-27 13:56:06,0.0
15252,-2656,840,-3978,-11185,5186,2025-01-27 13:56:06,0.0
13888,-2508,2496,-4344,-10240,4924,2025-01-27 13:56:06,0.0
13972,-2828,3872,-3682,-6146,4508,2025-01-27 13:56:06,0.0
14188,-2400,3288,-2610,1147,3325,2025-01-27 13:56:06,0.0
14884,-2412,2688,-2101,6419,3082,2025-01-27 13:56:06,0.0
15608,-1964,1820,-1704,7476,2739,2025-01-27 13:56:06,0.0
16776,-1712,1064,-2283,5156,2163,2025-01-27 13:56:06,0.0
17768,-1696,-208,-3148,2513,1142,2025-01-27 13:56:06,0.0
16472,-1660,64,-3393,1515,292,2025-01-27 13:56:06,0.0
15956,-1844,268,-3132,1634,-90,2025-01-27 13:56:06,0.0
16076,-2120,448,-2590,1848,-397,2025-01-27 13:56:06,0.0
16148,-2492,440,-1905,1867,-400,2025-01-27 13:56:06,0.0
17064,-1936,544,-1327,1636,-456,2025-01-27 13:56:06,0.0
18368,-2276,1196,-539,1711,-1139,2025-01-27 13:56:06,0.0
18996,-3036,2224,281,2227,-1694,2025-01-27 13:56:06,0.0
18716,-3896,2888,979,3228,-1149,2025-01-27 13:56:06,0.0
20632,-3448,2484,805,4502,-113,2025-01-27 13:56:06,0.0
21680,-3852,444,61,5669,745,2025-01-27 13:56:06,0.0
21924,-5656,-1792,-45,6774,2744,2025-01-27 13:56:06,0.0
24160,-5816,-3496,20,6751,4719,2025-01-27 13:56:06,0.0
26760,-4504,-1712,-311,4882,3934,2025-01-27 13:56:06,0.0
26344,-4108,3708,-536,4436,2946,2025-01-27 13:56:06,0.0
24392,-4864,5980,124,1438,4137,2025-01-27 13:56:06,0.0
23608,-8048,3320,-1713,-2626,6060,2025-01-27 13:56:06,0.0
26104,-10640,4820,-4023,-5284,6132,2025-01-27 13:56:06,0.0
29028,-10016,6408,-5430,-8245,2512,2025-01-27 13:56:06,0.0
24908,-5112,6336,-7847,-12271,-1413,2025-01-27 13:56:06,0.0
19244,-2576,9300,-10178,-17103,-1600,2025-01-27 13:56:06,0.0
16388,-1196,10548,-10339,-20624,-1492,2025-01-27 13:56:06,0.0
14212,1100,9688,-9104,-15462,-2326,2025-01-27 13:56:06,0.0
12156,2756,9592,-7815,-6544,-2002,2025-01-27 13:56:07,
14548,1536,8588,-5685,4941,-1686,2025-01-27 13:56:07,0.0
18580,-1848,7404,-3904,15060,-2645,2025-01-27 13:56:07,0.0
20236,-5104,4108,-3796,20483,-3757,2025-01-27 13:56:07,0.0
21468,-7240,1660,-5445,18484,-4479,2025-01-27 13:56:07,0.0
23124,-4548,2104,-7197,9875,-5123,2025-01-27 13:56:07,0.0
21776,-1176,2140,-8135,212,-6568,2025-01-27 13:56:07,0.0
17020,392,2700,-9992,-6632,-6341,2025-01-27 13:56:07,0.0
14912,676,3120,-10667,-11086,-5331,2025-01-27 13:56:07,0.0
13820,520,3268,-10726,-11750,-4658,2025-01-27 13:56:07,0.0
13640,148,2276,-10415,-8858,-4522,2025-01-27 13:56:07,0.0
12644,-240,2792,-10262,-3107,-4689,2025-01-27 13:56:07,0.0
11728,-784,2972,-10208,1770,-4479,2025-01-27 13:56:07,0.0
12416,-1148,2524,-9739,4108,-3295,2025-01-27 13:56:07,0.0
13912,-380,1424,-9010,4447,-1976,2025-01-27 13:56:07,0.0
14884,324,860,-8094,3200,-684,2025-01-27 13:56:07,0.0
15880,-12,504,-6607,111,1322,2025-01-27 13:56:07,0.0
16500,-1068,-460,-5964,-1344,2229,2025-01-27 13:56:07,0.0
29092,-1060,-3468,-5637,12642,-8649,2025-01-27 13:56:07,0.0
24000,-1096,-488,-6250,4467,-8529,2025-01-27 13:56:07,0.0
23756,-1012,3224,-6572,-3464,-6546,2025-01-27 13:56:07,0.0
24984,-2156,416,-8044,-6381,-4561,2025-01-27 13:56:07,0.0
28072,104,5588,-7174,-5172,-6097,2025-01-27 13:56:07,0.0
28008,3464,10256,-2860,-3232,-9520,2025-01-27 13:56:07,0.0
21960,6952,12164,874,-3393,-9920,2025-01-27 13:56:07,0.0
15008,6660,11576,2603,-6135,-5373,2025-01-27 13:56:07,0.0
15120,740,9940,4245,-7919,-986,2025-01-27 13:56:07,0.0
15392,-2308,5836,2794,-6882,1301,2025-01-27 13:56:07,0.0
16380,-4292,5028,-507,-2585,2777,2025-01-27 13:56:07,0.0
16604,-5276,6584,-1921,2425,3810,2025-01-27 13:56:07,0.0
16704,-4840,6444,-1578,5307,5255,2025-01-27 13:56:07,0.0
17880,-2860,6116,-918,6022,5940,2025-01-27 13:56:07,0.0
20004,168,4984,-589,6178,5313,2025-01-27 13:56:07,0.0
20512,1804,4472,73,6226,4034,2025-01-27 13:56:07,0.0
18532,1700,4624,1020,5415,3594,2025-01-27 13:56:07,0.0
15532,640,5208,1484,2696,4390,2025-01-27 13:56:07,0.0
14932,196,3324,954,-1736,5281,2025-01-27 13:56:07,0.0
14236,-3028,2772,303,-7440,6276,2025-01-27 13:56:07,0.0
16856,-5420,2232,1048,-5000,4733,2025-01-27 13:56:07,0.0
14668,-4952,2468,863,1392,2819,2025-01-27 13:56:07,0.0
14460,-4536,3332,389,4505,2856,2025-01-27 13:56:07,0.0
16740,-1280,1164,107,2854,2590,2025-01-27 13:56:07,0.0
17744,-440,732,459,2329,1850,2025-01-27 13:56:07,0.0
18096,-520,352,942,2343,749,2025-01-27 13:56:07,0.0
17452,-1052,220,1320,1841,77,2025-01-27 13:56:07,0.0
18176,-964,100,2006,569,-437,2025-01-27 13:56:07,0.0
18440,-960,900,2728,-575,-687,2025-01-27 13:56:07,0.0
19244,-1516,1488,3536,-1874,-1185,2025-01-27 13:56:07,0.0
18540,-2164,2576,3840,-3148,-1709,2025-01-27 13:56:07,0.0
17600,-2308,3180,3731,-2731,-1553,2025-01-27 13:56:07,0.0
17232,-2656,3312,3831,127,-595,2025-01-27 13:56:07,0.0
18968,-4456,1316,4185,5659,1070,2025-01-27 13:56:07,0.0
20108,-5908,-2316,4306,10557,3857,2025-01-27 13:56:07,0.0
24452,-5852,-5224,3791,10809,6701,2025-01-27 13:56:08,0.0
27792,-6328,-636,2445,9894,6693,2025-01-27 13:56:08,0.0
29456,-7432,5704,1879,6373,6590,2025-01-27 13:56:08,0.0
28676,-7892,6212,651,-582,4634,2025-01-27 13:56:08,0.0
25408,-9944,4296,-2181,-6583,3759,2025-01-27 13:56:08,0.0
25400,-9008,5800,-4637,-9629,2084,2025-01-27 13:56:08,0.0
22632,-4972,7008,-6708,-11180,320,2025-01-27 13:56:08,0.0
20144,-2044,9720,-7543,-12424,-543,2025-01-27 13:56:08,0.0
17428,672,9552,-7138,-11939,-1497,2025-01-27 13:56:08,0.0
15032,2328,8668,-6635,-8812,-1814,2025-01-27 13:56:08,0.0
15384,2696,8332,-4797,-1825,-1842,2025-01-27 13:56:08,0.0
17284,1256,6640,-2755,5837,-2211,2025-01-27 13:56:08,0.0
20008,-2584,4536,-1761,10592,-3346,2025-01-27 13:56:08,0.0
20780,-5668,2352,-2601,11065,-4110,2025-01-27 13:56:08,0.0
20972,-6304,1512,-4409,7537,-4271,2025-01-27 13:56:08,0.0
20848,-4212,2540,-6174,2813,-4767,2025-01-27 13:56:08,0.0
19204,-1704,4072,-7024,-960,-5717,2025-01-27 13:56:08,0.0
15640,184,4472,-7591,-3914,-6087,2025-01-27 13:56:08,0.0
13548,976,4256,-7974,-6015,-5426,2025-01-27 13:56:08,0.0
12572,944,4304,-7799,-6278,-4719,2025-01-27 13:56:08,0.0
12240,852,2504,-7581,-3005,-4399,2025-01-27 13:56:08,0.0
12748,600,2224,-7809,1323,-3785,2025-01-27 13:56:08,0.0
14432,72,2560,-7924,4023,-3521,2025-01-27 13:56:08,0.0
15884,-516,2212,-7801,4363,-3536,2025-01-27 13:56:08,0.0
15752,-400,1560,-7444,2588,-2562,2025-01-27 13:56:08,0.0
14896,152,1760,-6427,190,-707,2025-01-27 13:56:08,0.0
14676,344,1468,-5178,-1758,1490,2025-01-27 13:56:08,0.0
15104,-344,1112,-4424,-2588,2542,2025-01-27 13:56:08,0.0
16240,-1748,-1432,-4848,-2333,2905,2025-01-27 13:56:08,0.0
16312,-2544,-1068,-5750,-841,2915,2025-01-27 13:56:08,0.0
17288,-1848,308,-6406,255,3135,2025-01-27 13:56:08,0.0
20288,-500,1752,-6774,1316,2605,2025-01-27 13:56:08,0.0
22528,-192,2664,-7139,1802,1293,2025-01-27 13:56:08,0.0
24060,44,1112,-6634,234,-225,2025-01-27 13:56:08,0.0
30648,-696,-384,-5341,854,-3706,2025-01-27 13:56:08,0.0
30612,228,-3988,-3745,3443,-8438,2025-01-27 13:56:08,0.0
25680,172,-6220,-4153,3994,-10025,2025-01-27 13:56:08,0.0
21128,-460,-3484,-5371,708,-8119,2025-01-27 13:56:08,0.0
17432,-2068,912,-6377,-3229,-3518,2025-01-27 13:56:08,0.0
22488,1376,6316,-6651,-3617,668,2025-01-27 13:56:08,0.0
26680,4624,11872,-4781,-1383,-1146,2025-01-27 13:56:08,0.0
27376,7176,13576,-1221,558,-5627,2025-01-27 13:56:08,0.0
20824,7796,12332,2089,-1458,-7374,2025-01-27 13:56:08,0.0
16092,4560,10448,6949,-4635,-4615,2025-01-27 13:56:08,0.0
14996,-1152,6080,9229,-6045,-919,2025-01-27 13:56:08,0.0
15972,-5232,3276,5859,-3741,2165,2025-01-27 13:56:08,0.0
17408,-5876,5340,1810,-766,3359,2025-01-27 13:56:08,0.0
18464,-4896,6992,1196,2497,3093,2025-01-27 13:56:08,
18492,-1136,5796,2094,5988,3488,2025-01-27 13:56:09,0.0
18164,2548,5304,3383,8598,4869,2025-01-27 13:56:09,0.0
18968,5204,5252,4975,8554,6124,2025-01-27 13:56:09,0.0
19936,4368,5872,7338,6061,6095,2025-01-27 13:56:09,0.0
17848,1616,5432,8725,2295,5932,2025-01-27 13:56:09,0.0
16820,-840,1612,3755,647,-1324,2025-01-27 13:56:09,0.0
17232,-860,1752,3653,1867,-1952,2025-01-27 13:56:09,0.0
17816,-2012,2420,4195,2752,-1934,2025-01-27 13:56:09,0.0
19056,-3056,1724,4828,3960,-1153,2025-01-27 13:56:09,0.0
22108,-5260,3720,2843,-2223,5122,2025-01-27 13:56:09,0.0
23200,-8648,7324,607,-6278,5843,2025-01-27 13:56:09,0.0
25328,-10084,9260,-386,-9343,3527,2025-01-27 13:56:09,0.0
22344,-6296,9040,-2504,-10097,-217,2025-01-27 13:56:09,0.0
17616,-692,8748,-4374,-9450,-1733,2025-01-27 13:56:09,0.0
15140,3652,9272,-4031,-7109,-1375,2025-01-27 13:56:09,0.0
16780,6068,8304,-1291,-1596,-2074,2025-01-27 13:56:09,0.0
18108,3592,5156,956,6457,-3467,2025-01-27 13:56:09,0.0
19416,-1948,3892,1826,11019,-4548,2025-01-27 13:56:09,0.0
19316,-6204,2416,160,9999,-4355,2025-01-27 13:56:09,0.0
20276,-6896,3468,-2327,6460,-4218,2025-01-27 13:56:09,0.0
19372,-4120,4380,-4705,1727,-4974,2025-01-27 13:56:09,0.0
16288,-632,4420,-5469,-2285,-5205,2025-01-27 13:56:09,0.0
14328,1484,5232,-4904,-5729,-4520,2025-01-27 13:56:09,0.0
13224,2904,4448,-4237,-7501,-3996,2025-01-27 13:56:09,0.0
12096,3340,4176,-3989,-7317,-3994,2025-01-27 13:56:09,0.0
12352,2528,2528,-4183,-4769,-4001,2025-01-27 13:56:09,0.0
13600,1104,2868,-4155,-182,-3980,2025-01-27 13:56:09,0.0
14588,52,3332,-3694,3732,-3720,2025-01-27 13:56:09,0.0
15556,-388,2920,-3167,4353,-3191,2025-01-27 13:56:09,0.0
16456,-128,2320,-1753,2457,-1988,2025-01-27 13:56:09,0.0
15560,984,1828,-338,300,-187,2025-01-27 13:56:09,0.0
15356,1356,1748,855,-1337,1538,2025-01-27 13:56:09,0.0
16548,1332,-640,1335,-2580,2123,2025-01-27 13:56:09,0.0
16824,112,-2116,505,-2757,2117,2025-01-27 13:56:09,0.0
17540,-1584,-2132,-341,-1986,2269,2025-01-27 13:56:09,0.0
17880,-1776,-272,-870,-1070,3298,2025-01-27 13:56:09,0.0
19440,-1704,1168,-1650,-468,4249,2025-01-27 13:56:09,0.0
21208,-1276,2020,-2881,-629,3777,2025-01-27 13:56:09,0.0
22788,-396,1920,-3758,-1549,1951,2025-01-27 13:56:09,0.0
23736,-824,940,-3876,-1786,30,2025-01-27 13:56:09,0.0
25948,392,-1884,-2188,3666,-3796,2025-01-27 13:56:09,0.0
23568,340,-6092,-1958,6675,-5354,2025-01-27 13:56:09,0.0
21784,-428,-4256,-2667,6030,-4529,2025-01-27 13:56:09,0.0
21972,912,396,-4263,3907,-2854,2025-01-27 13:56:09,0.0
21864,3532,6208,-4607,947,284,2025-01-27 13:56:09,0.0
25164,5140,12368,-2764,-106,355,2025-01-27 13:56:09,0.0
27636,7012,15064,-154,-67,-3085,2025-01-27 13:56:09,0.0
23160,6564,15684,2250,-3316,-5770,2025-01-27 13:56:09,0.0
19772,3676,13836,6082,-6066,-5148,2025-01-27 13:56:09,0.0
15608,1364,8872,8879,-7941,-2609,2025-01-27 13:56:09,0.0
13572,-4948,4956,9130,-8291,2338,2025-01-27 13:56:09,0.0
15488,-6140,2920,5943,-6887,4895,2025-01-27 13:56:09,0.0
16896,-4888,5112,3147,-3719,4688,2025-01-27 13:56:09,0.0
18336,-436,5892,3003,2488,3973,2025-01-27 13:56:09,0.0
17768,3644,5360,4639,7138,5036,2025-01-27 13:56:09,0.0
20532,6016,4876,7159,7607,5502,2025-01-27 13:56:10,0.0
21076,4736,5744,10214,4192,4518,2025-01-27 13:56:10,0.0
18552,572,5376,12082,196,4421,2025-01-27 13:56:10,0.0
15760,-2048,4972,12317,-5165,5238,2025-01-27 13:56:10,0.0
14144,-4060,4972,11951,-10469,5742,2025-01-27 13:56:10,0.0
13120,-5116,5028,12160,-12386,5739,2025-01-27 13:56:10,0.0
15940,-5028,2472,12535,-7896,3376,2025-01-27 13:56:10,0.0
12516,-2964,2260,11414,1804,2531,2025-01-27 13:56:10,0.0
14388,-2772,3860,11974,5714,3120,2025-01-27 13:56:10,0.0
16708,-2228,2404,12611,6301,3089,2025-01-27 13:56:10,0.0
17688,-1824,656,11898,3892,2851,2025-01-27 13:56:10,0.0
18960,-2248,320,10850,645,1702,2025-01-27 13:56:10,0.0
18820,-2492,412,9727,-494,-74,2025-01-27 13:56:10,0.0
17064,-2608,556,8750,-626,-878,2025-01-27 13:56:10,0.0
16024,-2772,1652,8525,113,-965,2025-01-27 13:56:10,0.0
16588,-2700,1196,8430,1434,-898,2025-01-27 13:56:10,0.0
17516,-2324,388,8285,2262,-879,2025-01-27 13:56:10,0.0
18764,-2612,152,8174,2276,-741,2025-01-27 13:56:10,0.0
22460,-2984,-468,7411,1227,884,2025-01-27 13:56:10,0.0
22956,-3380,-492,6371,1527,1349,2025-01-27 13:56:10,0.0
13880,-2580,9548,-3863,-10356,-2345,2025-01-27 13:56:10,0.0
12732,324,11932,-2632,-3798,631,2025-01-27 13:56:10,0.0
16208,2192,7900,1609,5820,1748,2025-01-27 13:56:10,0.0
21236,496,4376,4796,13800,-298,2025-01-27 13:56:10,0.0
23776,-1308,-584,5010,16010,-3411,2025-01-27 13:56:10,0.0
24928,-3524,-512,2278,10432,-6183,2025-01-27 13:56:10,0.0
23208,-4876,3004,-319,2203,-7400,2025-01-27 13:56:10,0.0
19584,-3244,5484,-2756,-6959,-6438,2025-01-27 13:56:10,0.0
15912,-288,5968,-2777,-12746,-5287,2025-01-27 13:56:10,0.0
13076,1612,4636,-1887,-15211,-4568,2025-01-27 13:56:10,0.0
9644,2300,4908,-1221,-13351,-4298,2025-01-27 13:56:10,0.0
11372,1932,2328,-552,-6203,-5080,2025-01-27 13:56:10,0.0
9820,776,2832,-792,3739,-4629,2025-01-27 13:56:10,0.0
13328,272,2500,-716,9129,-3562,2025-01-27 13:56:10,0.0
17312,-124,992,-611,9981,-3684,2025-01-27 13:56:10,0.0
18316,-704,480,-651,6488,-3646,2025-01-27 13:56:10,0.0
16680,-252,2204,298,1489,-2334,2025-01-27 13:56:10,0.0
14772,772,1672,1626,-2313,235,2025-01-27 13:56:10,0.0
14328,676,872,2084,-3663,2119,2025-01-27 13:56:10,0.0
14004,664,-832,1639,-2863,2560,2025-01-27 13:56:10,0.0
14848,-368,-1640,128,-601,2064,2025-01-27 13:56:10,0.0
15248,-944,-896,-1332,2062,1593,2025-01-27 13:56:10,0.0
16608,-1012,32,-2001,4387,1971,2025-01-27 13:56:10,0.0
20448,364,732,-2515,6835,2208,2025-01-27 13:56:10,0.0
25424,1424,340,-3219,7737,940,2025-01-27 13:56:10,
27928,468,572,-3552,6315,-1246,2025-01-27 13:56:10,0.0
31608,-892,3864,-1403,5785,-5408,2025-01-27 13:56:10,0.0
28044,504,444,1404,3468,-7719,2025-01-27 13:56:10,0.0
22556,2276,-1496,1700,-1711,-5537,2025-01-27 13:56:11,0.0
23364,3500,456,216,-3569,-3575,2025-01-27 13:56:11,0.0
22356,3784,2884,-874,-2254,-1314,2025-01-27 13:56:11,0.0
25548,5892,7288,117,-51,-1404,2025-01-27 13:56:11,0.0
27500,6228,11044,2869,58,-3667,2025-01-27 13:56:11,0.0
24844,5828,12028,5726,-2975,-5885,2025-01-27 13:56:11,0.0
19768,2808,11396,8477,-8514,-5040,2025-01-27 13:56:11,0.0
15040,156,10184,10765,-12944,-2690,2025-01-27 13:56:11,0.0
13560,-2492,8616,11253,-14592,576,2025-01-27 13:56:11,0.0
15880,-4368,5356,8584,-11220,2719,2025-01-27 13:56:11,0.0
17212,-5580,4484,5504,-4846,2465,2025-01-27 13:56:11,0.0
16684,-5408,4836,4796,1618,1932,2025-01-27 13:56:11,0.0
15660,-1240,6092,5028,6556,2867,2025-01-27 13:56:11,0.0
19500,4696,5000,6702,12179,5057,2025-01-27 13:56:11,0.0
19752,4044,4800,8438,11149,5125,2025-01-27 13:56:11,0.0
17276,740,4428,9697,5029,6525,2025-01-27 13:56:11,0.0
16444,-2028,4308,9803,-4775,7258,2025-01-27 13:56:11,0.0
15844,-3608,3908,9100,-10585,6204,2025-01-27 13:56:11,0.0
13384,-4904,4248,8956,-11273,5072,2025-01-27 13:56:11,0.0
13988,-4232,2400,9122,-5193,2833,2025-01-27 13:56:11,0.0
12312,-3372,2044,8321,2653,2539,2025-01-27 13:56:11,0.0
14404,-2560,2336,8613,6414,2543,2025-01-27 13:56:11,0.0
15080,-1740,1140,8921,6359,2327,2025-01-27 13:56:11,0.0
16676,-1992,-492,7995,3871,1729,2025-01-27 13:56:11,0.0
18184,-2404,-808,6717,1863,386,2025-01-27 13:56:11,0.0
17084,-2112,216,4021,965,-2061,2025-01-27 13:56:11,0.0
18116,-2056,924,4068,1970,-2065,2025-01-27 13:56:11,0.0
18896,-2444,1600,4416,2791,-1544,2025-01-27 13:56:11,0.0
20104,-1836,1320,4718,3698,-350,2025-01-27 13:56:11,0.0
21120,-1332,428,4716,4519,725,2025-01-27 13:56:11,0.0
22252,-2276,-732,4315,5138,1978,2025-01-27 13:56:11,0.0
26004,-4528,2056,3984,1502,4186,2025-01-27 13:56:11,0.0
26680,-1336,5020,3491,3738,4986,2025-01-27 13:56:11,0.0
23976,-3252,3316,2290,2010,6923,2025-01-27 13:56:11,0.0
24020,-6896,4948,139,-3274,9349,2025-01-27 13:56:11,0.0
27900,-8228,7968,160,-9130,7870,2025-01-27 13:56:11,0.0
30012,-5996,7688,-446,-13066,1278,2025-01-27 13:56:11,0.0
22932,-2084,8396,-4247,-15633,-3533,2025-01-27 13:56:11,0.0
17052,-532,11832,-5054,-14770,-5581,2025-01-27 13:56:11,0.0
12560,2332,12660,-3251,-11207,-5007,2025-01-27 13:56:11,0.0
12448,4392,10164,-263,-4246,-3215,2025-01-27 13:56:11,0.0
15828,3788,4676,2436,6937,-2265,2025-01-27 13:56:11,0.0
19516,-1316,2256,3153,16491,-3103,2025-01-27 13:56:11,0.0
20516,-6124,844,2146,19512,-3842,2025-01-27 13:56:11,0.0
21536,-7836,668,-158,14034,-3523,2025-01-27 13:56:11,0.0
22876,-5736,1184,-2228,6188,-4637,2025-01-27 13:56:11,0.0
19572,-2304,2880,-3461,-770,-6422,2025-01-27 13:56:11,0.0
17220,264,1396,-4074,-7157,-6868,2025-01-27 13:56:11,0.0
13572,1208,3320,-4524,-11457,-6548,2025-01-27 13:56:11,0.0
11784,1636,2804,-5061,-13132,-6237,2025-01-27 13:56:11,0.0
11708,1164,1768,-5251,-9665,-6944,2025-01-27 13:56:11,0.0
10260,372,2076,-5567,-2597,-6588,2025-01-27 13:56:11,0.0
10132,-868,3988,-5182,2433,-4983,2025-01-27 13:56:11,0.0
12412,-464,3808,-4201,4942,-3758,2025-01-27 13:56:11,0.0
14136,432,1900,-3104,5307,-3148,2025-01-27 13:56:11,0.0
14164,1108,1256,-2085,4002,-1417,2025-01-27 13:56:11,0.0
14468,1260,964,-1145,2310,957,2025-01-27 13:56:11,0.0
15916,728,240,-333,1687,2355,2025-01-27 13:56:13,0.0
16560,284,-1148,-505,1334,2860,2025-01-27 13:56:13,0.0
17008,-592,-556,-1093,-181,2957,2025-01-27 13:56:13,0.0
18256,-120,-284,-1312,-2330,2840,2025-01-27 13:56:13,0.0
19568,1328,-516,-1414,-2616,2522,2025-01-27 13:56:13,0.0
22312,1380,276,-1724,-828,1803,2025-01-27 13:56:13,0.0
25788,624,56,-2231,2301,49,2025-01-27 13:56:13,0.0
29172,444,-732,-2722,4353,-3729,2025-01-27 13:56:13,0.0
20412,4536,6316,4177,9723,6242,2025-01-27 13:56:13,0.0
19716,5392,5140,3674,15258,6658,2025-01-27 13:56:13,0.0
22132,5332,4100,5964,9677,7028,2025-01-27 13:56:13,0.0
20184,704,6024,7988,2943,7173,2025-01-27 13:56:13,0.0
17088,-2444,5224,8350,-5344,7740,2025-01-27 13:56:13,0.0
15044,-3872,4940,6737,-14039,7110,2025-01-27 13:56:13,0.0
13176,-4904,4232,5685,-17904,5667,2025-01-27 13:56:13,0.0
14424,-5880,936,5456,-15006,2197,2025-01-27 13:56:13,0.0
9980,-4176,-364,3700,-5487,1383,2025-01-27 13:56:13,0.0
9800,-3080,2904,3661,4797,2536,2025-01-27 13:56:13,0.0
12944,-2028,3628,4792,9554,2576,2025-01-27 13:56:13,0.0
14664,-1692,560,5055,10075,2568,2025-01-27 13:56:13,0.0
16824,-1748,-1236,4044,7649,2049,2025-01-27 13:56:13,0.0
18596,-1848,-2208,2545,4279,461,2025-01-27 13:56:13,0.0
17544,-2548,-828,1285,1689,-1124,2025-01-27 13:56:13,0.0
17412,-2868,232,892,639,-2129,2025-01-27 13:56:13,0.0
16928,-2024,652,1113,1118,-2364,2025-01-27 13:56:13,0.0
18220,-1256,1040,1764,1754,-2286,2025-01-27 13:56:13,0.0
22388,-2004,708,3078,3993,745,2025-01-27 13:56:13,0.0
21312,-4592,-908,2927,5788,3194,2025-01-27 13:56:13,0.0
21604,-6924,-2660,3161,5240,7079,2025-01-27 13:56:13,0.0
25492,-6620,-3584,3253,2395,8834,2025-01-27 13:56:14,0.0
14836,-760,744,-4016,4405,-2323,2025-01-27 13:56:14,0.0
14996,-260,64,-3107,2718,-1134,2025-01-27 13:56:14,0.0
14888,496,604,-1994,293,451,2025-01-27 13:56:14,0.0
14668,-52,324,-1436,-1148,2048,2025-01-27 13:56:14,0.0
14656,-872,-1220,-1667,-709,2869,2025-01-27 13:56:14,0.0
16336,-1776,-2020,-2612,668,3077,2025-01-27 13:56:14,0.0
17128,-1208,-792,-3693,2183,2745,2025-01-27 13:56:14,0.0
18420,-272,704,-4567,3403,2450,2025-01-27 13:56:14,0.0
21748,720,1268,-4902,4706,1678,2025-01-27 13:56:14,0.0
25688,-72,472,-5172,5295,190,2025-01-27 13:56:14,
32767,-2116,1540,-4582,8136,-4553,2025-01-27 13:56:14,0.0
32767,-1228,-684,-2701,8576,-11034,2025-01-27 13:56:14,0.0
26104,228,-2392,-2890,3800,-12094,2025-01-27 13:56:14,0.0
21832,2140,-720,-4589,-3348,-9485,2025-01-27 13:56:14,0.0
19444,-688,3608,-5004,-7574,-4687,2025-01-27 13:56:14,0.0
25680,1972,3912,-4646,-2705,-3333,2025-01-27 13:56:14,0.0
27948,4132,8836,-3575,849,-5484,2025-01-27 13:56:14,0.0
28240,4528,11724,-537,611,-8919,2025-01-27 13:56:14,0.0
19460,5052,11400,2631,-6292,-8606,2025-01-27 13:56:14,0.0
11392,2288,10492,5581,-14409,-1829,2025-01-27 13:56:14,0.0
12292,-1568,8640,7825,-15319,3933,2025-01-27 13:56:14,0.0
16236,-2832,4436,5474,-8016,4883,2025-01-27 13:56:14,0.0
17500,-4532,3948,1661,3107,3060,2025-01-27 13:56:14,0.0
16436,-3852,5640,739,10596,2021,2025-01-27 13:56:14,0.0
17532,292,6032,1787,14245,2542,2025-01-27 13:56:14,0.0
18900,4532,6380,3531,14672,3910,2025-01-27 13:56:14,0.0
20528,5520,5676,5247,11963,5011,2025-01-27 13:56:14,0.0
19696,3596,5692,6917,6416,6189,2025-01-27 13:56:14,0.0
17836,-772,5468,7899,-534,7701,2025-01-27 13:56:14,0.0
16792,-3196,4812,7506,-7043,7900,2025-01-27 13:56:14,0.0
15688,-4680,3640,6353,-12643,6702,2025-01-27 13:56:14,0.0
14716,-6280,2712,5031,-14153,4352,2025-01-27 13:56:14,0.0
12860,-5340,-156,3504,-6686,1625,2025-01-27 13:56:14,0.0
9908,-4212,1596,1997,499,2056,2025-01-27 13:56:14,0.0
12152,-3064,4948,2851,5793,2911,2025-01-27 13:56:14,0.0
14232,-1708,4024,4290,7585,3016,2025-01-27 13:56:14,0.0
15760,-688,1612,4424,6716,2995,2025-01-27 13:56:14,0.0
17180,-480,352,3852,4049,2153,2025-01-27 13:56:14,0.0
17328,-632,-112,3103,1718,815,2025-01-27 13:56:14,0.0
16804,-716,108,2533,575,-325,2025-01-27 13:56:14,0.0
16904,-828,988,3238,2072,-1565,2025-01-27 13:56:14,0.0
17808,-1036,1332,4104,4384,-1879,2025-01-27 13:56:14,0.0
18228,-1608,1560,5191,6094,-1726,2025-01-27 13:56:14,0.0
18520,-2544,1440,5439,5851,-490,2025-01-27 13:56:15,0.0
20184,-3528,2204,4762,4240,1022,2025-01-27 13:56:15,0.0
28312,-5344,-1736,1800,212,6667,2025-01-27 13:56:15,0.0
29260,-2336,3852,219,1662,4790,2025-01-27 13:56:15,0.0
25672,-2692,9280,1016,1130,4230,2025-01-27 13:56:15,0.0
22584,-5048,5976,1258,-2343,6019,2025-01-27 13:56:15,0.0
22364,-7068,4448,-1893,-6971,7789,2025-01-27 13:56:15,0.0
28344,-9528,5208,-2763,-8261,4210,2025-01-27 13:56:15,0.0
24644,-4384,4080,-4776,-8567,305,2025-01-27 13:56:15,0.0
21136,-2404,8064,-6258,-11632,-2182,2025-01-27 13:56:15,0.0
18500,-72,10968,-6530,-13653,-4724,2025-01-27 13:56:15,0.0
14684,2128,12320,-5646,-11434,-5048,2025-01-27 13:56:15,0.0
13168,4012,12224,-3461,-6152,-3224,2025-01-27 13:56:15,0.0
16548,3980,6880,-604,3858,-2136,2025-01-27 13:56:15,0.0
19244,-1352,2740,761,14278,-3088,2025-01-27 13:56:15,0.0
20752,-5956,1260,-1237,17422,-3637,2025-01-27 13:56:15,0.0
22240,-7432,2192,-3148,13290,-4013,2025-01-27 13:56:15,0.0
21664,-5200,3348,-4095,7086,-4750,2025-01-27 13:56:15,0.0
18936,-2156,3436,-4615,277,-5215,2025-01-27 13:56:15,0.0
15688,-60,3704,-5195,-5636,-4667,2025-01-27 13:56:15,0.0
14128,1308,3844,-5630,-9318,-4335,2025-01-27 13:56:15,0.0
12944,1952,3976,-5460,-10153,-4515,2025-01-27 13:56:15,0.0
12300,2344,3256,-4987,-6876,-5004,2025-01-27 13:56:15,0.0
11672,2024,3036,-4952,-1565,-4836,2025-01-27 13:56:15,0.0
12264,896,3224,-4826,1878,-3946,2025-01-27 13:56:15,0.0
13412,-148,2756,-4270,2903,-3370,2025-01-27 13:56:15,0.0
14872,-1056,-304,-1816,-2707,2406,2025-01-27 13:56:15,0.0
15252,-1256,-1248,-2198,-2466,3155,2025-01-27 13:56:15,0.0
16584,-1268,-1936,-3491,-1461,3825,2025-01-27 13:56:15,0.0
17784,-1500,84,-5080,-283,3485,2025-01-27 13:56:15,0.0
19964,-1680,1348,-5919,1274,1846,2025-01-27 13:56:15,0.0
22872,-1980,1280,-6491,4108,75,2025-01-27 13:56:15,0.0
26012,-2208,-1424,-6922,6587,-1857,2025-01-27 13:56:15,0.0
31240,-2468,-2516,-7001,8009,-5575,2025-01-27 13:56:15,0.0
20768,3156,4616,3470,5513,6708,2025-01-27 13:56:15,0.0
19432,1120,5544,5023,2015,6172,2025-01-27 13:56:15,0.0
17164,-1368,5424,6022,-2749,5942,2025-01-27 13:56:15,0.0
14456,-2184,4660,5637,-7545,5639,2025-01-27 13:56:15,0.0
13356,-2868,3428,4674,-9564,5185,2025-01-27 13:56:15,0.0
13356,-4296,3688,4713,-7862,3587,2025-01-27 13:56:15,0.0
11436,-2772,2948,4112,-1309,2557,2025-01-27 13:56:16,0.0
12456,-2260,4412,4417,4010,2901,2025-01-27 13:56:16,0.0
14864,-1832,3648,5663,6845,3091,2025-01-27 13:56:16,0.0
16200,-1376,616,5598,6214,3094,2025-01-27 13:56:16,0.0
17344,-1712,-172,4837,3192,2501,2025-01-27 13:56:16,0.0
18260,-2248,-668,3909,248,763,2025-01-27 13:56:16,0.0
16692,-1248,-1100,-1823,1304,3387,2025-01-27 13:56:16,0.0
18812,-1472,-1132,-2627,2022,3219,2025-01-27 13:56:16,0.0
21140,-1464,-272,-3630,2412,2103,2025-01-27 13:56:16,0.0
23468,-2192,1744,-4386,2892,399,2025-01-27 13:56:16,0.0
23064,436,-4448,-4263,1243,-8774,2025-01-27 13:56:16,0.0
22504,-892,88,-5186,-653,-6245,2025-01-27 13:56:16,0.0
22700,-1684,3268,-6144,-1495,-2772,2025-01-27 13:56:16,0.0
28424,2924,9644,-6134,-1439,-3551,2025-01-27 13:56:16,0.0
28896,6000,15388,-2889,-2213,-7933,2025-01-27 13:56:16,0.0
21656,8204,14580,1516,-6002,-10264,2025-01-27 13:56:16,0.0
12608,6276,10976,5628,-11173,-5364,2025-01-27 13:56:16,0.0
11584,820,7896,9617,-12809,588,2025-01-27 13:56:17,0.0
14368,-2200,2792,8269,-8258,4168,2025-01-27 13:56:18,0.0
18028,-3788,2340,2817,-1267,4460,2025-01-27 13:56:18,0.0
18480,-5268,5772,-133,4352,2900,2025-01-27 13:56:18,0.0
17900,-4136,7092,400,7544,2587,2025-01-27 13:56:18,0.0
20448,-664,1700,4982,2359,-957,2025-01-27 13:56:18,0.0
21528,228,2224,5627,2517,20,2025-01-27 13:56:18,0.0
21876,-2052,664,5777,2401,1386,2025-01-27 13:56:18,0.0
21936,-5436,-1704,5140,3286,4263,2025-01-27 13:56:18,0.0
25188,-4380,4588,2488,-521,3088,2025-01-27 13:56:19,
19732,3716,5224,7129,3479,7779,2025-01-27 13:56:19,0.0
17772,1020,5456,8651,-837,7775,2025-01-27 13:56:19,0.0
15888,-1444,4288,8637,-5365,7660,2025-01-27 13:56:19,0.0
13976,-3120,3472,7487,-9357,7060,2025-01-27 13:56:19,0.0
13344,-4960,3088,6419,-11324,5230,2025-01-27 13:56:19,0.0
12400,-5136,840,5278,-6562,2816,2025-01-27 13:56:19,0.0
9972,-4240,2064,4208,-705,2583,2025-01-27 13:56:19,0.0
12180,-3280,4704,4892,5279,3149,2025-01-27 13:56:20,0.0
19888,2616,5436,5056,6004,6572,2025-01-27 13:56:20,0.0
17704,-1444,5412,6360,-856,7780,2025-01-27 13:56:20,0.0
16460,-2620,3836,5434,-7747,7948,2025-01-27 13:56:20,0.0
16104,-3932,2720,4691,-12568,6550,2025-01-27 13:56:20,0.0
14408,-4440,2272,3991,-13227,4813,2025-01-27 13:56:20,0.0
14428,-3648,808,3288,-5752,2004,2025-01-27 13:56:20,0.0
10468,-2284,3288,2525,1599,2243,2025-01-27 13:56:20,0.0
12992,-1848,4952,3753,5793,2928,2025-01-27 13:56:20,0.0
14356,-960,3296,4968,6971,2902,2025-01-27 13:56:24,0.0
15728,-868,1060,5032,5763,2984,2025-01-27 13:56:24,0.0
17584,-904,-408,4264,3361,2185,2025-01-27 13:56:24,0.0
17908,-1324,-496,3417,1563,548,2025-01-27 13:56:24,0.0
16684,-260,1652,4318,-89,-1308,2025-01-27 13:56:24,0.0
17448,-124,1536,4948,599,-1449,2025-01-27 13:56:24,0.0
19048,3332,4448,3644,5710,6993,2025-01-27 13:56:24,0.0
18012,236,5516,4988,-309,7334,2025-01-27 13:56:24,0.0
13804,1796,3716,-4842,-6660,-4095,2025-01-27 13:56:24,0.0
14100,1800,3440,-4920,-3738,-4775,2025-01-27 13:56:24,0.0
14268,988,3448,-4974,57,-4842,2025-01-27 13:56:24,0.0
14664,496,3428,-4609,2103,-4524,2025-01-27 13:56:24,0.0
15016,-320,2240,-3860,1795,-3846,2025-01-27 13:56:24,0.0
15180,-336,1448,-3052,237,-2616,2025-01-27 13:56:24,0.0
15108,224,1220,-2434,-1881,-1077,2025-01-27 13:56:24,0.0
14912,-188,1004,-2314,-3919,63,2025-01-27 13:56:24,0.0
14860,-900,-144,-2789,-4490,717,2025-01-27 13:56:24,0.0
15124,-1488,-1300,-3892,-2129,1096,2025-01-27 13:56:24,0.0
15328,-1788,-660,-4879,967,1969,2025-01-27 13:56:24,0.0
17092,-828,328,-5804,2820,2657,2025-01-27 13:56:24,0.0
21136,-836,1012,-6763,3648,1917,2025-01-27 13:56:24,0.0
24484,-1304,1488,-7668,4195,111,2025-01-27 13:56:25,0.0
26972,-656,512,-8007,4163,-2328,2025-01-27 13:56:25,0.0
32168,-592,2072,-6780,5865,-6920,2025-01-27 13:56:25,0.0
28036,616,-284,-3830,4699,-10492,2025-01-27 13:56:25,0.0
23952,2988,-2672,-4090,310,-9141,2025-01-27 13:56:25,0.0
23932,2176,924,-5610,-2946,-6849,2025-01-27 13:56:25,0.0
23544,1424,3756,-6834,-3728,-3587,2025-01-27 13:56:25,0.0
27452,4440,9152,-6627,-3944,-3422,2025-01-27 13:56:25,0.0
16668,-2408,-192,1779,603,-1467,2025-01-27 13:56:25,0.0
17916,-1912,4244,3915,2746,-330,2025-01-27 13:56:25,0.0
20368,-1948,4584,3690,3091,1008,2025-01-27 13:56:25,0.0
21980,-2208,2364,3054,4384,1419,2025-01-27 13:56:25,0.0
22104,-4672,-264,2477,5352,2576,2025-01-27 13:56:25,0.0
22548,-6384,-2452,2493,5545,5346,2025-01-27 13:56:25,0.0
25376,-5800,-2872,2783,4268,7283,2025-01-27 13:56:25,0.0
28104,-3472,1148,2197,3257,6488,2025-01-27 13:56:25,0.0
28104,-1808,7748,2353,2708,5345,2025-01-27 13:56:25,0.0
22732,-7660,3296,1135,-5493,7032,2025-01-27 13:56:25,0.0
24616,-10492,4168,-2327,-8295,7364,2025-01-27 13:56:25,0.0
28388,-8812,5972,-3691,-9026,3289,2025-01-27 13:56:25,0.0
23044,-3316,7620,-6100,-11161,-215,2025-01-27 13:56:25,0.0
20488,-280,11512,-6858,-14629,-2440,2025-01-27 13:56:25,0.0
17152,2368,13536,-5613,-14595,-4133,2025-01-27 13:56:25,0.0
14568,4696,13852,-3641,-11060,-3986,2025-01-27 13:56:25,0.0
15240,5652,9084,-1188,-4581,-3070,2025-01-27 13:56:25,0.0
17908,1760,5168,1693,6740,-3478,2025-01-27 13:56:25,0.0
19064,-2884,1396,2255,14730,-4491,2025-01-27 13:56:25,0.0
19660,-6756,784,1053,16924,-4655,2025-01-27 13:56:25,0.0
21852,-7220,32,-1199,12221,-4745,2025-01-27 13:56:25,0.0
21964,-4580,2320,-3036,5226,-6326,2025-01-27 13:56:25,0.0
18600,-2440,2844,-4434,-1533,-7173,2025-01-27 13:56:25,0.0
14780,-744,4076,-5390,-7398,-5981,2025-01-27 13:56:25,0.0
12816,496,4560,-5712,-11191,-4607,2025-01-27 13:56:26,0.0
16776,-96,-2308,-2279,-2311,3036,2025-01-27 13:56:26,0.0
17296,-948,-696,-3345,-2816,2765,2025-01-27 13:56:26,0.0
18288,-1488,1588,-4407,-1724,2539,2025-01-27 13:56:26,0.0
20676,-1568,2432,-5158,913,2011,2025-01-27 13:56:26,0.0
23632,-1852,896,-5431,3992,373,2025-01-27 13:56:26,0.0
28528,-2272,-3292,-6391,6976,-2703,2025-01-27 13:56:26,0.0
32644,-2244,-2624,-5324,11176,-8574,2025-01-27 13:56:26,0.0
27392,288,-2884,-3496,10693,-11545,2025-01-27 13:56:26,0.0
14156,3408,11836,-3719,726,-1734,2025-01-27 13:56:26,0.0
17212,2616,6840,-768,8621,-1149,2025-01-27 13:56:26,0.0
20660,-1648,2332,-784,13345,-2870,2025-01-27 13:56:26,0.0
21032,-6376,1488,-4079,10847,-4945,2025-01-27 13:56:26,0.0
21072,-6288,4092,-6357,5501,-5332,2025-01-27 13:56:26,0.0
19772,-3168,5300,-6890,440,-5755,2025-01-27 13:56:26,0.0
16656,-144,4536,-7081,-3464,-6029,2025-01-27 13:56:26,0.0
13268,1312,5696,-7087,-7048,-5583,2025-01-27 13:56:27,0.0
12244,1920,4460,-6939,-8989,-5214,2025-01-27 13:56:27,0.0
11984,1812,3696,-6753,-8409,-5229,2025-01-27 13:56:27,0.0
11832,1484,2320,-6581,-3083,-5106,2025-01-27 13:56:27,0.0
12320,840,2500,-6511,1601,-4076,2025-01-27 13:56:27,0.0
14916,-64,2712,-6127,3805,-3181,2025-01-27 13:56:27,0.0
15980,-988,1676,-5615,2483,-2363,2025-01-27 13:56:27,0.0
16052,-856,1244,-4687,-495,-1153,2025-01-27 13:56:27,0.0
14740,224,696,-3416,-3196,577,2025-01-27 13:56:27,0.0
20268,604,880,-4401,4314,1923,2025-01-27 13:56:27,0.0
24236,328,2116,-4696,5753,1014,2025-01-27 13:56:27,0.0
27956,-636,744,-4855,6340,-1114,2025-01-27 13:56:27,0.0
32756,-792,236,-4161,7694,-6310,2025-01-27 13:56:27,0.0
27436,500,-2288,-2531,6157,-9871,2025-01-27 13:56:27,0.0
22120,2256,-2232,-2827,1562,-7920,2025-01-27 13:56:27,
22608,-1680,1984,-3595,-1488,-4773,2025-01-27 13:56:27,0.0
25420,-2268,3260,-5013,-1747,-2578,2025-01-27 13:56:27,0.0
28876,1124,10336,-4821,-2163,-4113,2025-01-27 13:56:27,0.0
27516,4128,14828,-1415,-4257,-6823,2025-01-27 13:56:27,0.0
19684,7304,13248,2321,-8416,-6663,2025-01-27 13:56:27,0.0
14196,5164,10752,4803,-12178,-2869,2025-01-27 13:56:27,0.0
13088,984,7760,7454,-13110,297,2025-01-27 13:56:27,0.0
14168,-2568,1508,5831,-6305,2567,2025-01-27 13:56:27,0.0
16804,-4080,2124,2238,4402,2632,2025-01-27 13:56:27,0.0
16364,-3456,5248,1124,11367,2646,2025-01-27 13:56:27,0.0
17096,-1296,6684,1878,13886,3671,2025-01-27 13:56:27,0.0
18268,1808,5656,2984,11790,5186,2025-01-27 13:56:27,0.0
20488,932,6876,7554,896,5537,2025-01-27 13:56:27,0.0
16240,-2108,4548,8036,-3176,6276,2025-01-27 13:56:27,0.0
14888,-3272,2712,6403,-8947,6256,2025-01-27 13:56:27,0.0
13432,-3932,2904,4999,-11348,5568,2025-01-27 13:56:27,0.0
12864,-5172,3632,4642,-8764,3388,2025-01-27 13:56:27,0.0
11264,-3536,2216,3868,-884,2235,2025-01-27 13:56:27,0.0
11540,-3200,4532,4006,5681,2797,2025-01-27 13:56:27,0.0
13696,-2728,4664,5152,9187,3091,2025-01-27 13:56:27,0.0
16636,-1840,748,4898,7812,2919,2025-01-27 13:56:27,0.0
18348,-1516,-360,3587,3935,1912,2025-01-27 13:56:27,0.0
18948,-1284,-736,2562,1577,214,2025-01-27 13:56:27,0.0
17240,-1384,84,1912,230,-1164,2025-01-27 13:56:27,0.0
16468,-1404,964,2041,305,-2001,2025-01-27 13:56:27,0.0
17420,-1556,780,2275,1796,-2498,2025-01-27 13:56:27,0.0
17376,-2216,2048,2757,4041,-2487,2025-01-27 13:56:27,0.0
18012,-4120,2684,3515,5774,-1305,2025-01-27 13:56:27,0.0
20104,-5576,1872,3354,6529,1845,2025-01-27 13:56:27,0.0
23268,-5464,1128,2064,4852,3053,2025-01-27 13:56:27,0.0
25564,-5424,-96,455,4135,3010,2025-01-27 13:56:27,0.0
26176,-5672,-676,-573,3618,2946,2025-01-27 13:56:27,0.0
27280,-4204,-52,-448,215,1979,2025-01-27 13:56:27,0.0
25340,772,-276,965,-3833,-141,2025-01-27 13:56:27,0.0
21768,3392,1484,3361,-4850,-802,2025-01-27 13:56:27,0.0
23140,2320,6352,6474,-1284,123,2025-01-27 13:56:27,0.0
25280,-1476,5944,7264,1894,-209,2025-01-27 13:56:27,0.0
21740,-3904,6064,3905,-289,2096,2025-01-27 13:56:27,0.0
22256,-7788,9592,242,-7387,3905,2025-01-27 13:56:27,0.0
20788,-8536,8072,-2270,-13617,579,2025-01-27 13:56:27,0.0
14740,-4752,6352,-6220,-13847,-34,2025-01-27 13:56:27,0.0
13328,-2300,9932,-7000,-6658,1289,2025-01-27 13:56:27,0.0
16112,-836,11996,-3669,3120,1632,2025-01-27 13:56:27,0.0
19084,236,8260,-496,10510,549,2025-01-27 13:56:27,0.0
22292,-84,2992,-45,13611,-1890,2025-01-27 13:56:27,0.0
25000,-2140,660,-1910,11341,-4889,2025-01-27 13:56:27,0.0
23700,-3940,2764,-3602,5808,-6454,2025-01-27 13:56:28,0.0
21988,-2872,4084,-5204,-857,-6552,2025-01-27 13:56:28,0.0
19024,-820,4428,-5974,-5473,-6659,2025-01-27 13:56:28,0.0
11428,1240,5776,-4480,-7492,-4998,2025-01-27 13:56:28,0.0
11200,1128,2916,-3703,-2461,-5110,2025-01-27 13:56:28,0.0
11268,596,1604,-4065,3306,-4351,2025-01-27 13:56:28,0.0
13976,-128,1508,-4361,6780,-3669,2025-01-27 13:56:28,0.0
17348,-668,400,-4595,6108,-3756,2025-01-27 13:56:28,0.0
16896,-956,2140,-4000,2752,-3055,2025-01-27 13:56:28,0.0
14448,80,2952,-2357,-934,-795,2025-01-27 13:56:28,0.0
13576,908,1628,-970,-2702,1811,2025-01-27 13:56:28,0.0
13936,688,-432,-260,-2418,3324,2025-01-27 13:56:28,0.0
14208,168,-1772,-583,-1470,4089,2025-01-27 13:56:28,0.0
15224,-660,-880,-1614,-730,3973,2025-01-27 13:56:28,0.0
16424,-1200,1084,-2920,-48,3300,2025-01-27 13:56:28,0.0
18268,-1100,2288,-4035,1267,2204,2025-01-27 13:56:28,0.0
30004,-3912,64,-5395,7557,-1532,2025-01-27 13:56:28,0.0
31440,-2552,720,-3753,10784,-5741,2025-01-27 13:56:28,0.0
27612,-700,-1176,-3070,7436,-7857,2025-01-27 13:56:28,0.0
22708,1332,-1928,-4275,-934,-6452,2025-01-27 13:56:28,0.0
22984,2596,1128,-5437,-6263,-5188,2025-01-27 13:56:28,0.0
21764,2392,5360,-6320,-4993,-2837,2025-01-27 13:56:28,0.0
26600,3012,9628,-5541,-542,-2404,2025-01-27 13:56:28,0.0
29732,3372,13028,-3167,1992,-6230,2025-01-27 13:56:28,0.0
19704,3460,5836,9607,5520,5974,2025-01-27 13:56:28,0.0
16868,-596,5416,10969,948,7355,2025-01-27 13:56:28,0.0
15248,-3364,4308,10562,-4949,8643,2025-01-27 13:56:28,0.0
14628,-4300,3368,9189,-8968,8124,2025-01-27 13:56:28,0.0
15972,-6060,3560,8217,-9523,5256,2025-01-27 13:56:28,0.0
13768,-5096,2772,7469,-3740,2705,2025-01-27 13:56:28,0.0
11576,-2988,3100,6996,2020,2832,2025-01-27 13:56:28,0.0
14152,-2320,4460,7960,5682,3244,2025-01-27 13:56:28,0.0
15772,-1680,2480,8980,6168,3179,2025-01-27 13:56:28,0.0
16932,-1144,672,8322,3825,2975,2025-01-27 13:56:28,0.0
17864,-1388,32,7158,421,2125,2025-01-27 13:56:28,0.0
16244,-2772,88,4767,-1041,-1035,2025-01-27 13:56:28,0.0
16652,-2212,656,4580,-1155,-1182,2025-01-27 13:56:28,0.0
17592,-1160,880,4716,-233,-1562,2025-01-27 13:56:28,0.0
16968,-1256,2424,5333,214,-1476,2025-01-27 13:56:28,0.0
17728,-1268,3228,6227,605,-748,2025-01-27 13:56:28,0.0
19504,-444,2040,7022,2244,278,2025-01-27 13:56:28,0.0
21360,-1104,-68,7009,4834,1205,2025-01-27 13:56:28,0.0
21956,-4068,-2288,6565,7419,3602,2025-01-27 13:56:28,0.0
23516,-7112,-2760,5930,6390,6535,2025-01-27 13:56:28,0.0
26616,-7964,-948,5235,1242,6498,2025-01-27 13:56:28,0.0
29324,-5664,2684,3292,757,4450,2025-01-27 13:56:28,0.0
26472,-3988,4924,1768,820,3888,2025-01-27 13:56:28,0.0
22636,-6952,2900,158,-2874,6458,2025-01-27 13:56:28,0.0
22608,-9012,4448,-2469,-7832,8434,2025-01-27 13:56:29,0.0
27348,-9972,7148,-2428,-11304,6031,2025-01-27 13:56:29,0.0
25924,-3796,4940,-3963,-9968,714,2025-01-27 13:56:29,0.0
23028,60,10192,-6123,-11461,-3018,2025-01-27 13:56:29,0.0
18892,2844,13264,-4849,-11255,-5461,2025-01-27 13:56:29,0.0
14860,5508,13808,-1993,-9035,-5175,2025-01-27 13:56:29,
14804,7132,9268,1121,-4495,-3382,2025-01-27 13:56:29,0.0
17820,3992,5200,3977,4927,-3308,2025-01-27 13:56:29,0.0
18464,-1176,1856,4649,12773,-3998,2025-01-27 13:56:29,0.0
18716,-6556,796,2788,14791,-3505,2025-01-27 13:56:29,0.0
21340,-8564,888,381,9889,-3635,2025-01-27 13:56:29,0.0
21504,-5912,548,-1886,4226,-5458,2025-01-27 13:56:29,0.0
17780,-2828,2284,-3851,-1292,-6137,2025-01-27 13:56:29,0.0
13804,-332,4776,-4470,-5806,-5245,2025-01-27 13:56:29,0.0
12516,1260,4696,-4234,-8351,-4212,2025-01-27 13:56:29,0.0
12636,2504,2628,-3749,-6705,-4608,2025-01-27 13:56:29,0.0
11772,2784,1528,-3980,-1452,-4614,2025-01-27 13:56:29,0.0
11860,1568,3488,-3759,3249,-3478,2025-01-27 13:56:29,0.0
14472,516,3208,-3064,5187,-2881,2025-01-27 13:56:29,0.0
14784,120,1504,-2275,5003,-2562,2025-01-27 13:56:29,0.0
14496,204,272,-1378,3578,-1337,2025-01-27 13:56:29,0.0
14140,292,92,-175,1940,818,2025-01-27 13:56:29,0.0
15768,396,-884,98,639,2357,2025-01-27 13:56:29,0.0
15936,96,-1140,-329,334,3293,2025-01-27 13:56:29,0.0
16728,-1072,-1408,-1554,747,3856,2025-01-27 13:56:29,0.0
18336,-1196,-412,-2582,697,3937,2025-01-27 13:56:29,0.0
20012,44,1192,-3570,680,3386,2025-01-27 13:56:29,0.0
22856,-68,3744,-4467,1243,1612,2025-01-27 13:56:29,0.0
24584,-1216,5156,-4607,2074,-1015,2025-01-27 13:56:29,0.0
29504,-2468,3112,-3891,4220,-4562,2025-01-27 13:56:29,0.0
30860,-1436,-2332,-1739,7105,-10222,2025-01-27 13:56:29,0.0
25600,976,-6924,-2222,5911,-11767,2025-01-27 13:56:29,0.0
19028,472,-4440,-4436,-1103,-8024,2025-01-27 13:56:29,0.0
20252,-2488,-572,-5645,-5622,-3784,2025-01-27 13:56:29,0.0
21700,-1604,2452,-7482,-2555,-147,2025-01-27 13:56:29,0.0
27124,3668,8524,-7764,519,-1301,2025-01-27 13:56:29,0.0
27304,5880,12820,-5442,-340,-4002,2025-01-27 13:56:29,0.0
22688,8124,15212,-623,-4455,-5955,2025-01-27 13:56:29,0.0
15920,5504,13280,4541,-9441,-3324,2025-01-27 13:56:29,0.0
16620,2264,10308,9491,-10593,-1925,2025-01-27 13:56:29,0.0
15428,-1012,4432,9583,-8685,-1957,2025-01-27 13:56:29,0.0
15416,-3840,1768,4847,-1871,-1555,2025-01-27 13:56:29,0.0
16392,-4376,3944,89,5631,-116,2025-01-27 13:56:29,0.0
17036,-3304,7252,523,9167,1672,2025-01-27 13:56:29,0.0
18608,-1020,6796,2384,8147,3820,2025-01-27 13:56:29,0.0
20596,1692,6492,4372,6062,5129,2025-01-27 13:56:29,0.0
21440,3052,5984,5774,3308,5472,2025-01-27 13:56:29,0.0
18748,1488,6168,7423,-742,5657,2025-01-27 13:56:29,0.0
16172,-112,5308,7931,-4308,6052,2025-01-27 13:56:29,0.0
15292,-1304,2628,7205,-7804,5683,2025-01-27 13:56:29,0.0
14432,-2944,1792,6284,-7787,3748,2025-01-27 13:56:29,0.0
12628,-3644,1268,5420,-5056,2754,2025-01-27 13:56:29,0.0
11964,-3484,3264,5327,-686,2681,2025-01-27 13:56:29,0.0
12936,-2956,4088,6442,2369,3354,2025-01-27 13:56:29,0.0
15268,-2688,3900,7516,4923,3621,2025-01-27 13:56:29,0.0
16624,-1904,1604,7346,5303,3270,2025-01-27 13:56:29,0.0
17868,-1724,176,5139,1447,1270,2025-01-27 13:56:29,0.0
17660,-2288,224,4469,53,-216,2025-01-27 13:56:29,0.0
16852,-2112,472,4219,-110,-1166,2025-01-27 13:56:29,0.0
16140,-1860,152,4418,292,-1655,2025-01-27 13:56:29,0.0
15844,-1312,92,4552,-68,-1560,2025-01-27 13:56:29,0.0
17020,-684,172,4473,528,-1877,2025-01-27 13:56:29,0.0
18040,-772,1208,4647,2188,-2173,2025-01-27 13:56:29,0.0
18184,-1920,1880,5153,3769,-1672,2025-01-27 13:56:29,0.0
19952,-2828,1976,5776,4768,-335,2025-01-27 13:56:29,0.0
22356,-2584,660,5516,5200,1499,2025-01-27 13:56:29,0.0
22720,-4532,-344,4471,4626,3472,2025-01-27 13:56:30,0.0
23352,-7012,-1284,3483,2464,5763,2025-01-27 13:56:30,0.0
27712,-6816,-2412,2740,-636,5039,2025-01-27 13:56:30,0.0
28752,-3232,688,1395,504,1964,2025-01-27 13:56:30,0.0
24904,-888,5696,1170,104,2997,2025-01-27 13:56:30,0.0
22812,-3580,4896,1834,-2953,4986,2025-01-27 13:56:30,0.0
22756,-6908,4584,-660,-6530,7154,2025-01-27 13:56:30,0.0
27584,-9600,5284,-1901,-7722,4821,2025-01-27 13:56:30,0.0
24036,-5232,4384,-4159,-7920,-1206,2025-01-27 13:56:30,0.0
18272,-2784,7788,-6458,-10888,-3260,2025-01-27 13:56:30,0.0
14712,1168,10692,-5918,-10306,-4149,2025-01-27 13:56:33,0.0
12508,3888,10736,-3758,-5336,-2893,2025-01-27 13:56:34,0.0
14620,4448,8268,-1296,2426,-1122,2025-01-27 13:56:34,0.0
17836,1180,5804,453,9851,-1395,2025-01-27 13:56:34,0.0
20496,-2508,2372,-431,13772,-2886,2025-01-27 13:56:34,0.0
26704,-780,-1496,-4422,4533,-7658,2025-01-27 13:56:34,0.0
23320,1060,-2688,-4440,1620,-7462,2025-01-27 13:56:34,0.0
23844,908,-1408,-5260,-32,-6353,2025-01-27 13:56:34,0.0
22980,-1052,2056,-5745,40,-3568,2025-01-27 13:56:34,0.0
14540,2156,9780,13002,-16002,-2746,2025-01-27 13:56:34,0.0
22624,-2332,3056,2897,1811,-6575,2025-01-27 13:56:34,0.0
16260,-1052,5344,2477,-7106,-5994,2025-01-27 13:56:34,0.0
14152,-76,4948,3098,-11647,-4497,2025-01-27 13:56:35,0.0
12536,436,3676,3363,-12433,-3839,2025-01-27 13:56:35,0.0
13284,1060,316,2586,-7617,-4367,2025-01-27 13:56:35,0.0
13644,1344,1576,1945,-315,-4663,2025-01-27 13:56:35,0.0
14752,1588,2320,2238,3281,-4574,2025-01-27 13:56:35,0.0
15540,1392,1932,2684,4163,-4329,2025-01-27 13:56:35,0.0
15896,880,1620,3168,3717,-3479,2025-01-27 13:56:35,0.0
15544,392,764,3679,2621,-1825,2025-01-27 13:56:35,0.0
15796,-196,-124,3978,1452,-57,2025-01-27 13:56:35,0.0
16036,-196,-1852,3714,421,1111,2025-01-27 13:56:35,0.0
15804,108,-2380,3050,-489,2297,2025-01-27 13:56:35,0.0
17036,448,-2380,2382,-1762,3487,2025-01-27 13:56:35,0.0
17628,1768,-160,1938,-3364,4179,2025-01-27 13:56:35,0.0
19060,3576,1944,1262,-4282,3507,2025-01-27 13:56:35,0.0
20256,3736,3076,540,-2902,1513,2025-01-27 13:56:35,0.0
21532,356,2280,89,318,-774,2025-01-27 13:56:35,0.0
25808,-3616,-212,-135,4698,-3054,2025-01-27 13:56:35,0.0
26348,-4280,-3396,327,10400,-5795,2025-01-27 13:56:35,
24384,-2632,-5580,703,10046,-6162,2025-01-27 13:56:35,0.0
21356,2016,-4112,-227,3314,-3684,2025-01-27 13:56:35,0.0
22688,7112,408,-1747,-1514,-2313,2025-01-27 13:56:35,0.0
22604,7792,5296,-1955,-1201,53,2025-01-27 13:56:35,0.0
26040,6732,9288,461,1630,383,2025-01-27 13:56:35,0.0
28180,4252,10412,2570,1192,-2120,2025-01-27 13:56:35,0.0
25848,1612,11704,4468,-3605,-4559,2025-01-27 13:56:35,0.0
21536,1028,12648,8485,-10477,-5195,2025-01-27 13:56:35,0.0
14064,2648,10656,11055,-14898,-2472,2025-01-27 13:56:35,0.0
10968,-36,8300,11975,-16491,2396,2025-01-27 13:56:35,0.0
14976,-2100,3148,10011,-10118,4416,2025-01-27 13:56:35,0.0
17728,-3048,2300,6760,498,2861,2025-01-27 13:56:35,0.0
17120,-1164,5868,5421,7652,1847,2025-01-27 13:56:35,0.0
18032,2240,6992,6574,11638,3075,2025-01-27 13:56:35,0.0
20108,5016,5608,8944,11825,5030,2025-01-27 13:56:35,0.0
21368,3964,5632,12211,6995,5780,2025-01-27 13:56:35,0.0
18532,-956,5892,14782,-625,7736,2025-01-27 13:56:35,0.0
16688,-3044,5480,14676,-8066,8470,2025-01-27 13:56:35,0.0
