acceleration_x,acceleration_y,acceleration_z,gyroscope_x,gyroscope_y,gyroscope_z,timestamp,label
18604,-628,4672,-183,63,-173,2025-01-27 13:54:18,0.0
18688,-528,4712,-176,110,-193,2025-01-27 13:54:18,0.0
18720,-372,4728,-124,169,-181,2025-01-27 13:54:18,0.0
18708,-488,4824,-163,151,-173,2025-01-27 13:54:19,0.0
18640,-472,4784,-107,110,-166,2025-01-27 13:54:19,0.0
18612,-504,4936,-142,55,-146,2025-01-27 13:54:19,0.0
18592,-632,4808,-158,98,-175,2025-01-27 13:54:19,0.0
18716,-580,4788,-161,210,-167,2025-01-27 13:54:19,0.0
18760,-572,4820,-182,258,-172,2025-01-27 13:54:19,0.0
18696,-564,4876,-206,266,-195,2025-01-27 13:54:19,0.0
18740,-476,4744,-189,225,-187,2025-01-27 13:54:19,0.0
18684,-448,4884,-174,192,-175,2025-01-27 13:54:19,0.0
18752,-412,4732,-161,186,-181,2025-01-27 13:54:19,0.0
18768,-480,4732,-166,160,-186,2025-01-27 13:54:19,0.0
18692,-484,4716,-174,129,-173,2025-01-27 13:54:19,0.0
18680,-580,4764,-144,165,-154,2025-01-27 13:54:19,0.0
18808,-448,4764,-175,246,-173,2025-01-27 13:54:19,0.0
18680,-556,4748,-145,158,-137,2025-01-27 13:54:19,0.0
18680,-504,4700,-146,175,-146,2025-01-27 13:54:19,0.0
18652,-548,4952,-183,140,-142,2025-01-27 13:54:19,0.0
18664,-516,4864,-192,183,-148,2025-01-27 13:54:19,0.0
18768,-468,4964,-186,240,-140,2025-01-27 13:54:19,0.0
18672,-628,5252,-54,107,15,2025-01-27 13:54:19,0.0
18656,-920,4720,-173,128,170,2025-01-27 13:54:19,0.0
18228,-1176,4604,-220,541,315,2025-01-27 13:54:19,0.0
18016,-1700,4676,-197,729,678,2025-01-27 13:54:19,0.0
18100,-1644,4680,-271,870,854,2025-01-27 13:54:19,0.0
18328,-1568,4596,-603,1530,986,2025-01-27 13:54:19,0.0
18612,-1904,5212,-761,2292,1139,2025-01-27 13:54:19,0.0
19036,-2076,5260,-825,2270,1240,2025-01-27 13:54:19,0.0
19604,-2068,4744,-904,1403,1099,2025-01-27 13:54:19,0.0
19984,-1916,4504,-1011,-118,768,2025-01-27 13:54:19,0.0
20056,-1748,4160,-1168,-1840,251,2025-01-27 13:54:19,0.0
19308,-2016,4212,-1374,-3111,-234,2025-01-27 13:54:19,0.0
18548,-1904,4408,-1321,-2909,-345,2025-01-27 13:54:19,0.0
18020,-1708,3952,-1172,-1558,-450,2025-01-27 13:54:19,0.0
18056,-1772,3400,-1269,-285,-695,2025-01-27 13:54:19,0.0
18536,-1740,3520,-1388,198,-831,2025-01-27 13:54:19,0.0
18992,-1660,3440,-1520,-199,-944,2025-01-27 13:54:19,0.0
19160,-1672,3576,-1793,-876,-948,2025-01-27 13:54:19,0.0
18844,-1612,3732,-1942,-1564,-972,2025-01-27 13:54:19,0.0
18828,-1592,3732,-1938,-2001,-981,2025-01-27 13:54:19,0.0
19096,-1140,4092,-1958,-1882,-1213,2025-01-27 13:54:19,0.0
19508,-772,4272,-1856,-1458,-1580,2025-01-27 13:54:19,0.0
19500,-928,4000,-1804,-1133,-1871,2025-01-27 13:54:19,0.0
19408,-440,4172,-1539,-1286,-2004,2025-01-27 13:54:19,0.0
19104,-120,3736,-1543,-2480,-1932,2025-01-27 13:54:19,0.0
18952,-80,4312,-1702,-3725,-1913,2025-01-27 13:54:19,0.0
18712,36,4764,-1538,-4188,-1859,2025-01-27 13:54:19,0.0
18524,600,4492,-1292,-4233,-1711,2025-01-27 13:54:19,0.0
18528,1020,4060,-913,-3863,-1666,2025-01-27 13:54:19,0.0
18592,1384,3488,-480,-3102,-1553,2025-01-27 13:54:19,0.0
19372,1660,2996,-158,-2165,-1627,2025-01-27 13:54:19,0.0
19624,1664,2792,60,-1483,-1776,2025-01-27 13:54:19,0.0
19492,1636,2604,440,-1733,-1989,2025-01-27 13:54:19,0.0
19128,952,1944,855,-2695,-1766,2025-01-27 13:54:19,0.0
17660,76,1260,988,-3354,-1200,2025-01-27 13:54:19,0.0
18068,-632,348,439,-2680,-942,2025-01-27 13:54:19,0.0
18872,-164,512,-649,140,-1924,2025-01-27 13:54:19,0.0
17976,472,808,-1297,2342,-2688,2025-01-27 13:54:19,0.0
17880,1572,1284,-1512,2896,-2679,2025-01-27 13:54:19,0.0
18408,1768,1512,-1337,2955,-2618,2025-01-27 13:54:19,0.0
18560,1708,1512,-1143,2357,-2501,2025-01-27 13:54:19,0.0
18340,1580,1780,-960,779,-2393,2025-01-27 13:54:20,0.0
17748,1796,1368,-849,-775,-2087,2025-01-27 13:54:20,0.0
17468,1644,1040,-788,-1018,-1768,2025-01-27 13:54:20,0.0
17460,1384,472,-762,-631,-1295,2025-01-27 13:54:20,0.0
17708,1292,632,-752,-118,-1053,2025-01-27 13:54:20,0.0
18080,968,368,-945,97,-877,2025-01-27 13:54:20,0.0
18564,168,-560,-1327,-236,-615,2025-01-27 13:54:20,0.0
19004,544,-608,-1815,-487,-672,2025-01-27 13:54:20,0.0
18364,768,-460,-2430,-1311,-473,2025-01-27 13:54:20,0.0
17308,372,336,-2416,-2292,451,2025-01-27 13:54:20,0.0
17312,900,1144,-2056,-2529,1516,2025-01-27 13:54:20,0.0
17580,1344,788,-2111,-1527,1816,2025-01-27 13:54:20,0.0
17744,1528,432,-2377,106,1675,2025-01-27 13:54:20,0.0
18108,1712,-56,-2477,1606,1507,2025-01-27 13:54:20,0.0
18600,1748,-356,-2383,2456,1353,2025-01-27 13:54:20,0.0
19812,1764,-996,-2456,2305,1229,2025-01-27 13:54:20,0.0
20764,1452,-1276,-2969,1550,312,2025-01-27 13:54:20,0.0
20848,1064,-644,-3336,151,-201,2025-01-27 13:54:20,0.0
21100,1200,-348,-2942,-461,-557,2025-01-27 13:54:20,0.0
20876,1396,-1668,-2714,342,-801,2025-01-27 13:54:20,0.0
20000,2356,-1820,-2716,1971,-661,2025-01-27 13:54:20,0.0
19340,2504,-1556,-2455,3086,136,2025-01-27 13:54:20,0.0
19764,2636,-592,-2397,3333,1127,2025-01-27 13:54:20,0.0
21584,3044,1572,-2665,3911,1424,2025-01-27 13:54:20,0.0
23524,3244,3412,-2174,4831,846,2025-01-27 13:54:20,0.0
24164,4104,3964,-976,5775,30,2025-01-27 13:54:20,0.0
24296,5216,3916,846,6123,-292,2025-01-27 13:54:20,0.0
23688,5800,4244,2971,5131,337,2025-01-27 13:54:20,0.0
22636,5516,5448,4558,2958,1771,2025-01-27 13:54:20,0.0
20924,4240,7932,6066,-2436,3365,2025-01-27 13:54:20,0.0
18404,3084,8464,7042,-8547,3437,2025-01-27 13:54:20,0.0
14928,2200,8104,7239,-13456,3673,2025-01-27 13:54:20,0.0
13708,96,7276,7155,-15056,3763,2025-01-27 13:54:20,0.0
13616,-2760,5892,6829,-10888,3293,2025-01-27 13:54:20,0.0
14496,-4600,5836,5939,-2580,2630,2025-01-27 13:54:20,0.0
15580,-4168,6136,5001,5487,2228,2025-01-27 13:54:20,0.0
16144,-1408,5888,4803,10620,2660,2025-01-27 13:54:20,
18428,1200,4532,5719,13069,3557,2025-01-27 13:54:20,0.0
19536,1884,3500,6801,11882,4543,2025-01-27 13:54:20,0.0
20012,764,5460,7808,6894,5841,2025-01-27 13:54:20,0.0
20568,-480,6912,8651,657,6325,2025-01-27 13:54:20,0.0
19864,-1580,6952,8731,-4843,5997,2025-01-27 13:54:20,0.0
18828,-1592,5820,8706,-7807,5124,2025-01-27 13:54:20,0.0
17888,-1816,3800,9064,-8183,4498,2025-01-27 13:54:20,0.0
17016,-1660,3156,9320,-6430,4164,2025-01-27 13:54:20,0.0
16216,-1736,2660,9358,-3651,3719,2025-01-27 13:54:20,0.0
15900,-2028,2648,9463,-58,3651,2025-01-27 13:54:20,0.0
16804,-2368,2576,9640,2779,3866,2025-01-27 13:54:20,0.0
17920,-2632,2364,9676,3220,3898,2025-01-27 13:54:20,0.0
18768,-2716,2200,9612,2076,3688,2025-01-27 13:54:20,0.0
18884,-2816,2136,9383,-275,3294,2025-01-27 13:54:20,0.0
18100,-2888,2740,9227,-2646,2598,2025-01-27 13:54:20,0.0
17408,-3004,2872,8879,-3992,2048,2025-01-27 13:54:20,0.0
17184,-3388,2004,8490,-3930,1204,2025-01-27 13:54:20,0.0
16808,-3604,1008,7621,-1684,127,2025-01-27 13:54:20,0.0
16460,-3480,1248,6588,515,-842,2025-01-27 13:54:20,0.0
16460,-3336,1328,6062,1217,-1416,2025-01-27 13:54:20,0.0
16700,-3116,1920,5793,1802,-1656,2025-01-27 13:54:20,0.0
17236,-3184,2500,5643,2236,-1325,2025-01-27 13:54:20,0.0
18340,-3148,2292,5804,2599,-866,2025-01-27 13:54:20,0.0
19560,-2964,1408,5713,3054,-611,2025-01-27 13:54:20,0.0
20384,-3176,1032,5494,3237,-103,2025-01-27 13:54:20,0.0
21104,-3428,888,5242,2758,860,2025-01-27 13:54:20,0.0
22168,-3652,1808,5304,1671,1594,2025-01-27 13:54:20,0.0
22432,-3648,1652,5762,-127,2205,2025-01-27 13:54:21,0.0
22724,-3004,-64,5935,-816,2586,2025-01-27 13:54:21,0.0
22740,-1804,-1584,6319,-535,2587,2025-01-27 13:54:21,0.0
22748,-860,-1144,6572,902,1912,2025-01-27 13:54:21,0.0
22764,-1680,4220,7262,1534,2638,2025-01-27 13:54:21,0.0
22844,-3348,5208,8413,596,3746,2025-01-27 13:54:21,0.0
23128,-5836,2224,6867,-535,4757,2025-01-27 13:54:21,0.0
25528,-8296,1892,3761,-2281,2946,2025-01-27 13:54:21,0.0
26220,-9096,4028,1368,-3590,-965,2025-01-27 13:54:21,0.0
21232,-7660,6480,-720,-5659,-2785,2025-01-27 13:54:21,0.0
17328,-6152,8716,-2439,-7387,-1534,2025-01-27 13:54:21,0.0
15692,-3868,9860,-2900,-6639,-468,2025-01-27 13:54:21,0.0
14480,-840,8284,-2242,-3120,-556,2025-01-27 13:54:21,0.0
15208,2156,6608,-1337,1001,-792,2025-01-27 13:54:21,0.0
18064,3388,4952,-663,4975,-1721,2025-01-27 13:54:21,0.0
21604,476,4492,-585,7614,-3714,2025-01-27 13:54:21,0.0
22176,-2160,4152,-920,8772,-5259,2025-01-27 13:54:21,0.0
21144,-3128,5564,-1179,7015,-5513,2025-01-27 13:54:21,0.0
19472,-2064,7344,-757,1343,-5320,2025-01-27 13:54:21,0.0
17132,-1572,7120,-331,-3984,-5167,2025-01-27 13:54:21,0.0
15096,-1044,5444,-318,-6433,-4911,2025-01-27 13:54:21,0.0
14316,-580,3308,-1284,-6711,-4908,2025-01-27 13:54:21,0.0
14688,-412,1900,-2375,-5102,-5305,2025-01-27 13:54:21,0.0
15032,-388,1488,-3023,-2211,-5756,2025-01-27 13:54:21,0.0
14840,-464,2276,-3533,-411,-5507,2025-01-27 13:54:21,0.0
15416,-812,2488,-3992,-78,-5127,2025-01-27 13:54:21,0.0
15900,-572,2756,-4080,-379,-4572,2025-01-27 13:54:21,0.0
15824,-244,2168,-3592,-1301,-3535,2025-01-27 13:54:21,0.0
15660,336,1952,-2946,-1962,-2303,2025-01-27 13:54:21,0.0
15260,1064,1336,-2265,-2408,-939,2025-01-27 13:54:21,0.0
14916,1332,1580,-1438,-2446,246,2025-01-27 13:54:21,0.0
15396,384,-1280,-935,-3054,1287,2025-01-27 13:54:21,0.0
16288,208,-1940,-1112,-3601,1368,2025-01-27 13:54:21,0.0
16584,-48,-1188,-1222,-3897,1671,2025-01-27 13:54:21,0.0
17264,-312,172,-1376,-3959,2612,2025-01-27 13:54:21,0.0
19196,-964,1040,-2117,-3276,2635,2025-01-27 13:54:21,0.0
21148,-2152,1584,-3227,-1854,1000,2025-01-27 13:54:21,0.0
23052,-2796,1040,-4636,1087,-1581,2025-01-27 13:54:21,0.0
25792,-2016,-312,-5419,4966,-4309,2025-01-27 13:54:21,0.0
26024,-576,-2524,-5222,7242,-7572,2025-01-27 13:54:21,0.0
24576,672,-5792,-5574,6988,-9205,2025-01-27 13:54:21,0.0
21984,1596,-3552,-6113,5168,-7834,2025-01-27 13:54:21,0.0
22388,2596,1680,-5821,4446,-5138,2025-01-27 13:54:21,0.0
24156,2512,3212,-5772,3413,-2338,2025-01-27 13:54:21,0.0
28292,3804,5328,-5235,832,-3583,2025-01-27 13:54:21,0.0
27648,5532,9808,-2197,-2130,-5501,2025-01-27 13:54:21,0.0
23160,7572,11224,1778,-6199,-4834,2025-01-27 13:54:21,0.0
17404,5388,11364,5281,-10477,-862,2025-01-27 13:54:21,0.0
15316,1548,9792,8166,-13824,1270,2025-01-27 13:54:21,0.0
14680,-312,5872,7238,-14063,1698,2025-01-27 13:54:21,0.0
14068,-2916,3568,3117,-6681,2021,2025-01-27 13:54:21,0.0
14008,-4256,5224,1133,2743,3087,2025-01-27 13:54:21,0.0
14912,-3816,6356,1524,10235,4385,2025-01-27 13:54:21,0.0
16248,-1400,5676,2349,13804,5651,2025-01-27 13:54:21,0.0
19056,2152,2928,2554,13663,6420,2025-01-27 13:54:21,0.0
20620,2452,3336,2837,10567,6074,2025-01-27 13:54:21,0.0
18544,184,5516,4640,4485,6613,2025-01-27 13:54:21,0.0
16932,-1832,5924,5653,-2196,8108,2025-01-27 13:54:21,0.0
17332,-2376,4928,5212,-7333,7619,2025-01-27 13:54:21,0.0
16544,-2604,3352,4515,-9855,5746,2025-01-27 13:54:21,0.0
15728,-3180,2616,4215,-7763,3237,2025-01-27 13:54:21,0.0
13488,-2664,1632,3650,-980,2034,2025-01-27 13:54:22,0.0
12828,-2688,3868,3733,3803,2520,2025-01-27 13:54:22,0.0
14808,-2060,3436,4658,5244,2619,2025-01-27 13:54:22,0.0
16660,-1720,1636,4414,4720,2211,2025-01-27 13:54:22,0.0
18432,-1580,736,3693,2932,1431,2025-01-27 13:54:22,0.0
18804,-2052,1660,3396,905,-29,2025-01-27 13:54:22,0.0
17620,-2512,928,3071,-817,-761,2025-01-27 13:54:22,0.0
17064,-2580,596,2733,-2196,-1154,2025-01-27 13:54:22,0.0
16320,-2260,-304,2538,-2317,-1418,2025-01-27 13:54:22,0.0
16648,-2036,240,2921,-2391,-1377,2025-01-27 13:54:22,0.0
16852,-1492,1996,3466,-1766,-1706,2025-01-27 13:54:22,0.0
17476,-1480,2688,3997,-337,-2236,2025-01-27 13:54:22,
21800,-3380,-1444,6441,7454,3094,2025-01-27 13:54:22,0.0
23396,-5204,-2404,6585,5718,4996,2025-01-27 13:54:22,0.0
26056,-5104,-2380,6500,2299,5432,2025-01-27 13:54:22,0.0
27608,-3912,936,5363,1103,5029,2025-01-27 13:54:22,0.0
27172,-3188,5496,5174,-237,4777,2025-01-27 13:54:22,0.0
24256,-6492,3816,4719,-2134,5180,2025-01-27 13:54:22,0.0
22348,-9624,4040,1118,-4914,6421,2025-01-27 13:54:22,0.0
24748,-11244,6596,-1977,-7792,5113,2025-01-27 13:54:22,0.0
22968,-7180,5284,-4138,-8647,1605,2025-01-27 13:54:22,0.0
18736,-4184,7144,-6511,-9380,1422,2025-01-27 13:54:22,0.0
18408,-2412,9844,-6792,-10149,1745,2025-01-27 13:54:22,0.0
19116,-436,9516,-5497,-7973,276,2025-01-27 13:54:22,0.0
17888,1824,7304,-4455,-3338,-973,2025-01-27 13:54:22,0.0
25296,1204,-1564,-4289,267,-9880,2025-01-27 13:54:22,0.0
20128,792,-1620,-4949,-5765,-7596,2025-01-27 13:54:22,0.0
21056,-392,368,-4027,-5073,-4539,2025-01-27 13:54:22,0.0
22916,-2164,248,-4385,1456,-2321,2025-01-27 13:54:23,0.0
27816,2168,4804,-5500,4397,-3594,2025-01-27 13:54:23,0.0
28472,4680,9940,-3483,1633,-6475,2025-01-27 13:54:23,0.0
22920,8628,12496,212,-4344,-7084,2025-01-27 13:54:23,0.0
14304,7912,11480,4205,-11410,-2448,2025-01-27 13:54:23,0.0
15376,3212,9188,8714,-13269,1129,2025-01-27 13:54:23,0.0
15904,80,4572,8941,-10162,823,2025-01-27 13:54:23,0.0
16396,-2964,3536,4749,-3237,-374,2025-01-27 13:54:24,0.0
15952,-4904,5928,1521,4925,-247,2025-01-27 13:54:24,0.0
20596,1004,5352,4202,10182,4917,2025-01-27 13:54:24,0.0
22084,3144,4764,5329,7253,5075,2025-01-27 13:54:24,0.0
19504,1932,6052,6683,2634,5759,2025-01-27 13:54:24,0.0
17232,192,5984,7746,-2948,6918,2025-01-27 13:54:24,0.0
14576,-572,6288,7489,-8245,7249,2025-01-27 13:54:24,0.0
14992,-1232,4100,7252,-11315,6326,2025-01-27 13:54:24,0.0
13708,-2280,4228,6877,-11123,4902,2025-01-27 13:54:24,0.0
28604,4908,11736,-4251,4044,-8274,2025-01-27 13:54:24,0.0
23924,6896,13188,-223,-61,-9889,2025-01-27 13:54:24,0.0
17012,6828,10556,3291,-7210,-5959,2025-01-27 13:54:24,0.0
15512,1016,9628,8123,-12067,209,2025-01-27 13:54:24,0.0
16956,-2776,5880,8838,-10657,1840,2025-01-27 13:54:24,0.0
17368,-4804,2740,3957,-4856,1517,2025-01-27 13:54:24,0.0
17904,-4888,3444,-938,3752,809,2025-01-27 13:54:24,0.0
16840,-2992,5336,-829,9938,1236,2025-01-27 13:54:24,0.0
17736,72,5416,1180,11610,3259,2025-01-27 13:54:24,0.0
20096,3280,4052,3364,10426,5561,2025-01-27 13:54:24,0.0
21628,3344,5332,5205,5656,6955,2025-01-27 13:54:24,0.0
19496,660,6924,6884,180,7533,2025-01-27 13:54:24,0.0
16964,-1616,5496,7120,-5882,7514,2025-01-27 13:54:24,0.0
15148,-2320,4140,6260,-10783,6616,2025-01-27 13:54:24,0.0
12928,-2576,3320,5382,-12442,5473,2025-01-27 13:54:24,0.0
13344,-3048,2028,5030,-7899,2952,2025-01-27 13:54:24,0.0
10264,-2388,1924,3893,-657,2313,2025-01-27 13:54:24,0.0
10904,-2472,5200,4485,4424,2893,2025-01-27 13:54:24,0.0
13336,-2092,5024,6500,8095,3248,2025-01-27 13:54:24,0.0
15000,-2088,2396,6944,9371,3375,2025-01-27 13:54:24,0.0
16836,-2372,16,5806,7578,2870,2025-01-27 13:54:24,0.0
18552,-2776,-1016,4118,3468,1217,2025-01-27 13:54:24,0.0
18216,-3444,-576,3043,1186,-344,2025-01-27 13:54:24,0.0
17200,-3616,200,2409,-207,-1315,2025-01-27 13:54:24,0.0
15532,-3052,888,1915,-390,-1686,2025-01-27 13:54:24,0.0
15936,-2532,1940,2105,918,-1667,2025-01-27 13:54:24,0.0
17464,-1796,1396,3077,3774,-1380,2025-01-27 13:54:24,0.0
19212,-1856,2312,3782,6035,-606,2025-01-27 13:54:24,0.0
20688,-1828,2320,3776,7713,614,2025-01-27 13:54:24,0.0
22164,-3304,1668,3397,8071,1930,2025-01-27 13:54:24,0.0
22232,-6288,468,2929,7569,3912,2025-01-27 13:54:28,0.0
23304,-8028,-1008,2538,5775,6273,2025-01-27 13:54:28,0.0
25528,-7636,-1252,2323,1891,7184,2025-01-27 13:54:28,0.0
28936,-5108,324,1372,-400,4970,2025-01-27 13:54:28,0.0
28108,-924,5420,860,712,3128,2025-01-27 13:54:28,0.0
24196,-592,5944,2790,57,4121,2025-01-27 13:54:28,0.0
23044,-4832,2840,2064,-1983,5057,2025-01-27 13:54:28,0.0
25344,-844,1044,-5780,3230,-338,2025-01-27 13:54:28,0.0
29048,-1596,-1392,-5509,4041,-2769,2025-01-27 13:54:28,0.0
27956,-2528,3724,1011,3423,5169,2025-01-27 13:54:28,0.0
25856,-2068,7456,1852,2447,4943,2025-01-27 13:54:28,0.0
22896,-4864,5780,1914,-1414,6220,2025-01-27 13:54:28,0.0
23956,-7864,4204,-518,-6669,7028,2025-01-27 13:54:28,0.0
26496,-9020,4392,-2406,-8881,4840,2025-01-27 13:54:28,0.0
26040,-7040,4812,-4143,-9752,457,2025-01-27 13:54:28,0.0
21188,-3220,8684,-6419,-11326,-1364,2025-01-27 13:54:28,0.0
18868,-388,11480,-6147,-12041,-2686,2025-01-27 13:54:28,0.0
15796,2088,11632,-4839,-10502,-3163,2025-01-27 13:54:28,0.0
14032,4276,10536,-3657,-6518,-2761,2025-01-27 13:54:28,0.0
15764,4512,7044,-2325,236,-2458,2025-01-27 13:54:28,0.0
18052,732,5244,-584,8268,-3230,2025-01-27 13:54:28,0.0
18864,-3452,2748,-437,12856,-3860,2025-01-27 13:54:28,0.0
19492,-7000,1840,-1822,12796,-3757,2025-01-27 13:54:28,0.0
13940,1196,5708,-5657,-6863,-4842,2025-01-27 13:54:28,0.0
12812,2348,4816,-5488,-9199,-4146,2025-01-27 13:54:28,0.0
12640,3068,3572,-5038,-8048,-4356,2025-01-27 13:54:28,0.0
12152,2908,2852,-4918,-2790,-4754,2025-01-27 13:54:28,0.0
12160,1388,3268,-5106,1891,-4181,2025-01-27 13:54:28,0.0
13560,-28,3320,-4830,4575,-3459,2025-01-27 13:54:28,0.0
15060,-812,2212,-4320,5202,-2879,2025-01-27 13:54:28,0.0
15964,-932,1564,-3697,3950,-2211,2025-01-27 13:54:28,0.0
15560,-556,976,-2915,1401,-739,2025-01-27 13:54:28,0.0
14964,-80,1032,-2387,-1046,1272,2025-01-27 13:54:28,0.0
14764,-744,1688,-1993,-2603,2869,2025-01-27 13:54:28,0.0
15324,-972,-580,-1983,-2998,4027,2025-01-27 13:54:28,0.0
16428,-1396,-1188,-2677,-2240,4448,2025-01-27 13:54:28,0.0
17396,-1388,-32,-3727,-1544,3902,2025-01-27 13:54:28,0.0
18136,-1460,1540,-4489,-1278,3046,2025-01-27 13:54:28,
18984,-632,1624,-4900,-384,2076,2025-01-27 13:54:28,0.0
20808,-240,144,-5110,1192,1688,2025-01-27 13:54:28,0.0
26116,-1128,-1824,-5657,3675,642,2025-01-27 13:54:28,0.0
31464,-2136,-1696,-5441,8104,-3685,2025-01-27 13:54:28,0.0
29956,-552,-2400,-4900,9202,-8410,2025-01-27 13:54:29,0.0
25744,880,-1208,-4538,6560,-10025,2025-01-27 13:54:29,0.0
23460,652,332,-5177,1633,-8962,2025-01-27 13:54:29,0.0
23884,-860,2480,-6018,-2635,-6842,2025-01-27 13:54:29,0.0
24768,72,5248,-5599,-4544,-5547,2025-01-27 13:54:29,0.0
27324,1876,9764,-3084,-3762,-5507,2025-01-27 13:54:29,0.0
27360,4452,10224,-530,-3856,-6843,2025-01-27 13:54:29,0.0
20676,6452,10708,817,-6807,-6710,2025-01-27 13:54:31,0.0
13648,3956,10568,1835,-11636,-2614,2025-01-27 13:54:31,0.0
18332,-1528,1028,1996,-2536,-2246,2025-01-27 13:54:31,0.0
18064,-1236,2844,2084,-1473,-2210,2025-01-27 13:54:31,0.0
18376,-1152,3664,2565,690,-1561,2025-01-27 13:54:31,0.0
18536,-2676,1448,2755,3122,30,2025-01-27 13:54:31,0.0
19856,-4288,-752,2795,3997,2291,2025-01-27 13:54:31,0.0
22356,-4268,-2540,3392,2169,3892,2025-01-27 13:54:31,0.0
23480,1788,1056,3565,-3009,3189,2025-01-27 13:54:31,0.0
18912,912,2204,15534,1720,-74,2025-01-27 13:54:31,0.0
18644,840,2112,15110,1009,-4,2025-01-27 13:54:31,0.0
18568,1040,2392,14701,210,188,2025-01-27 13:54:31,0.0
18704,1000,2456,14659,-166,209,2025-01-27 13:54:31,0.0
18648,648,1812,13812,45,-90,2025-01-27 13:54:31,0.0
18596,164,1216,12727,443,-272,2025-01-27 13:54:31,0.0
18572,104,884,11632,759,-301,2025-01-27 13:54:31,0.0
18384,80,740,10492,759,-184,2025-01-27 13:54:31,0.0
18764,428,704,9208,55,-63,2025-01-27 13:54:31,0.0
18752,1000,312,8098,-595,-117,2025-01-27 13:54:31,0.0
18952,1424,-92,6985,-863,-222,2025-01-27 13:54:31,0.0
18812,1468,-584,5873,-945,-289,2025-01-27 13:54:31,0.0
18032,1560,-556,5130,-1007,215,2025-01-27 13:54:31,0.0
17696,1848,-536,4757,-880,933,2025-01-27 13:54:31,0.0
17300,2076,-892,4497,-329,1695,2025-01-27 13:54:31,0.0
16956,2680,-72,4350,919,2239,2025-01-27 13:54:31,0.0
17880,3676,2228,4336,2754,2641,2025-01-27 13:54:31,0.0
21668,4848,3312,3640,4940,1688,2025-01-27 13:54:31,0.0
24328,5324,4460,2459,6539,-881,2025-01-27 13:54:31,0.0
25256,3404,9168,4394,6627,-3014,2025-01-27 13:54:31,0.0
21476,4328,8444,8476,2903,-3174,2025-01-27 13:54:31,0.0
17636,5124,4424,9821,-3277,53,2025-01-27 13:54:31,0.0
17768,2528,4140,9981,-6928,3474,2025-01-27 13:54:31,0.0
17892,624,4648,9394,-7761,5634,2025-01-27 13:54:31,0.0
18944,-444,7008,9148,-7710,6137,2025-01-27 13:54:31,0.0
19704,-920,7124,9792,-6655,5021,2025-01-27 13:54:31,0.0
19768,-688,5804,10414,-3658,3300,2025-01-27 13:54:31,0.0
19116,-244,3812,10818,998,2356,2025-01-27 13:54:31,0.0
18128,-212,2660,10969,4226,3249,2025-01-27 13:54:31,0.0
18312,-1012,3256,11566,3810,4875,2025-01-27 13:54:31,0.0
18524,-2272,3960,12026,884,6328,2025-01-27 13:54:31,0.0
18944,-3516,3700,11536,-1450,7126,2025-01-27 13:54:31,0.0
19048,-4340,4128,10859,-2043,7013,2025-01-27 13:54:31,0.0
18656,-4120,3672,10329,-1312,6195,2025-01-27 13:54:31,0.0
17608,-2992,2960,9641,7,5172,2025-01-27 13:54:31,0.0
16436,-1944,2508,8883,1480,4335,2025-01-27 13:54:31,0.0
16320,-1444,2552,8663,2883,3940,2025-01-27 13:54:31,0.0
16816,-1176,2704,8698,3750,3555,2025-01-27 13:54:31,0.0
17124,-1280,2408,8365,3829,3604,2025-01-27 13:54:31,0.0
17872,-1928,1932,7783,3151,3467,2025-01-27 13:54:31,0.0
18280,-2960,1788,7177,1872,3260,2025-01-27 13:54:31,0.0
18456,-3740,1576,6740,1040,2823,2025-01-27 13:54:31,0.0
18240,-4408,1908,6220,412,2413,2025-01-27 13:54:31,0.0
18004,-4524,1480,5280,213,1594,2025-01-27 13:54:31,0.0
16808,-3908,680,4074,615,966,2025-01-27 13:54:31,0.0
17092,-3372,768,3180,1103,627,2025-01-27 13:54:31,0.0
17788,-2244,320,2272,1814,-180,2025-01-27 13:54:31,0.0
17880,-1712,156,1554,1773,-876,2025-01-27 13:54:31,0.0
19080,-1432,584,1241,1266,-1728,2025-01-27 13:54:31,0.0
18808,-1984,416,936,985,-2350,2025-01-27 13:54:31,0.0
18488,-2724,556,731,257,-2139,2025-01-27 13:54:31,0.0
17488,-3436,36,780,-926,-1558,2025-01-27 13:54:32,0.0
18200,-4248,488,811,-1832,-907,2025-01-27 13:54:32,0.0
18644,-3868,1348,868,-1247,-726,2025-01-27 13:54:32,0.0
19284,-2540,2780,1279,230,-402,2025-01-27 13:54:32,0.0
19756,356,3764,2141,1513,-117,2025-01-27 13:54:32,0.0
19024,-476,3076,3706,1286,760,2025-01-27 13:54:32,0.0
19560,-3256,-224,4177,916,2317,2025-01-27 13:54:32,0.0
21180,-4636,-2300,4246,1143,3180,2025-01-27 13:54:32,0.0
23132,-3892,-2560,4405,1591,3541,2025-01-27 13:54:32,0.0
24784,-1944,-380,4210,3850,3739,2025-01-27 13:54:32,0.0
24972,-3116,4640,4475,5548,4788,2025-01-27 13:54:32,0.0
23368,-6260,4164,4477,3876,6843,2025-01-27 13:54:32,0.0
23732,-10632,2068,1081,-2248,8668,2025-01-27 13:54:32,0.0
29216,-12932,648,-1499,-6083,4961,2025-01-27 13:54:32,0.0
23620,-6516,-716,-4427,-3681,418,2025-01-27 13:54:32,0.0
22728,-3728,6356,-4690,-4409,-469,2025-01-27 13:54:32,0.0
21764,-1344,8480,-3361,-6132,-1808,2025-01-27 13:54:32,0.0
19268,-264,9544,-3567,-8104,-3948,2025-01-27 13:54:32,0.0
15444,564,9988,-4272,-9481,-5568,2025-01-27 13:54:32,0.0
11896,1976,9048,-4523,-8023,-4220,2025-01-27 13:54:32,0.0
14088,2312,6320,-3600,-329,-1637,2025-01-27 13:54:32,0.0
16944,-1004,5628,-2141,8641,-1960,2025-01-27 13:54:32,0.0
19676,-4284,1748,-2999,12023,-3173,2025-01-27 13:54:32,0.0
21476,-5592,1044,-4964,9824,-4574,2025-01-27 13:54:32,0.0
21560,-4684,2984,-6507,5287,-6259,2025-01-27 13:54:32,0.0
19396,-3408,4912,-7221,179,-6509,2025-01-27 13:54:32,0.0
17052,-1824,6428,-7346,-3536,-5522,2025-01-27 13:54:32,0.0
15684,-620,5456,-7413,-4786,-4484,2025-01-27 13:54:32,0.0
14596,1216,4060,-7633,-3600,-4165,2025-01-27 13:54:32,
14248,2388,3976,-7678,-1239,-4273,2025-01-27 13:54:32,0.0
14040,2396,4216,-7306,338,-4248,2025-01-27 13:54:32,0.0
15064,1392,3812,-6894,1498,-3905,2025-01-27 13:54:32,0.0
16532,488,3072,-6601,2463,-3766,2025-01-27 13:54:32,0.0
17352,288,2628,-6340,2403,-3854,2025-01-27 13:54:32,0.0
17944,288,1820,-5664,705,-3782,2025-01-27 13:54:32,0.0
17008,1084,2440,-4761,-2109,-2914,2025-01-27 13:54:32,0.0
15624,1380,2436,-3870,-4025,-1432,2025-01-27 13:54:32,0.0
14580,588,1436,-3137,-3703,79,2025-01-27 13:54:32,0.0
15592,-744,1012,-2735,-1755,708,2025-01-27 13:54:32,0.0
15248,-1608,1292,-2870,-293,1004,2025-01-27 13:54:32,0.0
16032,-2424,-72,-3761,336,1706,2025-01-27 13:54:32,0.0
17176,-2292,-256,-4641,117,2419,2025-01-27 13:54:32,0.0
19076,-1220,-116,-5316,-280,2586,2025-01-27 13:54:32,0.0
20984,-40,-680,-5972,-157,1611,2025-01-27 13:54:32,0.0
22452,620,-584,-6678,325,210,2025-01-27 13:54:32,0.0
24464,260,8,-6900,1167,-1447,2025-01-27 13:54:32,0.0
26972,-672,1308,-5834,2726,-3640,2025-01-27 13:54:32,0.0
25820,740,96,-4414,2726,-5875,2025-01-27 13:54:32,0.0
22948,2448,-1908,-3822,954,-6310,2025-01-27 13:54:32,0.0
23028,2180,724,-3816,297,-5355,2025-01-27 13:54:32,0.0
22164,2224,3856,-3156,479,-3389,2025-01-27 13:54:32,0.0
24596,2944,4960,-1975,1297,-3400,2025-01-27 13:54:32,0.0
26244,3504,9024,206,1704,-4437,2025-01-27 13:54:32,0.0
26612,5716,10224,2810,1315,-5950,2025-01-27 13:54:32,0.0
21576,8004,9144,4229,-3254,-5779,2025-01-27 13:54:32,0.0
14624,4088,9732,5887,-10438,-354,2025-01-27 13:54:32,0.0
13952,-988,8136,7611,-14172,3942,2025-01-27 13:54:32,0.0
14956,-4256,5912,6144,-12847,5793,2025-01-27 13:54:32,0.0
16924,-5932,4756,4846,-5282,4801,2025-01-27 13:54:32,0.0
16396,-4208,3488,4035,5019,3316,2025-01-27 13:54:32,0.0
15260,1876,3912,3025,12902,3510,2025-01-27 13:54:32,0.0
17844,4328,4168,3567,15288,4420,2025-01-27 13:54:33,0.0
19620,3836,3920,4994,13703,4544,2025-01-27 13:54:33,0.0
18560,1680,4712,6182,7969,5733,2025-01-27 13:54:33,0.0
17496,-1240,5760,6974,442,7503,2025-01-27 13:54:33,0.0
16512,-3180,6248,7254,-6485,7987,2025-01-27 13:54:33,0.0
15136,-4152,5868,7384,-10611,7215,2025-01-27 13:54:33,0.0
15800,-4552,4892,7631,-10406,4852,2025-01-27 13:54:33,0.0
13936,-2856,2204,6631,-737,1996,2025-01-27 13:54:33,0.0
12676,-2844,4080,6024,5362,2239,2025-01-27 13:54:33,0.0
13488,-2668,4480,6669,7170,2673,2025-01-27 13:54:33,0.0
15520,-2472,2568,6496,7127,3022,2025-01-27 13:54:33,0.0
17528,-2744,1604,5904,5822,2843,2025-01-27 13:54:33,0.0
18756,-2672,436,5089,3599,2050,2025-01-27 13:54:33,0.0
19672,-2432,452,4342,1109,869,2025-01-27 13:54:33,0.0
18932,-2224,1224,3683,-661,-538,2025-01-27 13:54:33,0.0
16932,-1584,2672,3372,-1883,-1198,2025-01-27 13:54:33,0.0
16776,-1148,2728,3614,-2364,-1679,2025-01-27 13:54:33,0.0
15892,-848,2188,4251,-1749,-2004,2025-01-27 13:54:33,0.0
15572,-1104,2184,5036,-968,-1840,2025-01-27 13:54:33,0.0
16364,-2060,3128,5681,-271,-1470,2025-01-27 13:54:33,0.0
18484,-2444,2768,6402,2641,-823,2025-01-27 13:54:33,0.0
20604,-1892,1444,6642,6261,-45,2025-01-27 13:54:33,0.0
21776,-3148,-372,6073,8237,1362,2025-01-27 13:54:33,0.0
22568,-5792,-1376,5125,7402,3727,2025-01-27 13:54:33,0.0
24844,-8124,-560,4614,3800,5734,2025-01-27 13:54:33,0.0
27920,-7264,-132,4469,-2110,4098,2025-01-27 13:54:33,0.0
27088,-3576,760,2665,-3166,1118,2025-01-27 13:54:33,0.0
23124,-1232,5080,2186,-2441,2536,2025-01-27 13:54:33,0.0
22488,-3836,2428,3374,-1326,3921,2025-01-27 13:54:33,0.0
21316,-6440,2924,669,-2534,4523,2025-01-27 13:54:33,0.0
23332,-7856,6412,-1128,-5781,4291,2025-01-27 13:54:33,0.0
25392,-6152,7008,-1426,-9263,921,2025-01-27 13:54:33,0.0
21212,-2440,7848,-3837,-11548,-1039,2025-01-27 13:54:33,0.0
17564,-48,10560,-4719,-11930,-1673,2025-01-27 13:54:33,0.0
14492,2736,10460,-3701,-9615,-1666,2025-01-27 13:54:33,0.0
15512,4536,9188,-1450,-3394,-2047,2025-01-27 13:54:33,0.0
18204,3704,6036,671,5657,-3106,2025-01-27 13:54:33,0.0
20392,-924,3756,1725,12749,-4407,2025-01-27 13:54:33,0.0
21564,-4780,1764,635,14046,-5030,2025-01-27 13:54:33,0.0
23216,-7064,1056,-2012,9772,-5193,2025-01-27 13:54:33,0.0
22992,-6412,2412,-4202,3399,-5720,2025-01-27 13:54:33,0.0
19600,-3772,3232,-5276,-2060,-5985,2025-01-27 13:54:33,0.0
15660,-980,4036,-5924,-6219,-4741,2025-01-27 13:54:33,0.0
14476,776,3996,-6307,-7445,-3898,2025-01-27 13:54:33,0.0
14268,1844,3448,-6305,-5884,-4029,2025-01-27 13:54:33,0.0
12768,2720,3052,-6465,-2456,-4225,2025-01-27 13:54:33,0.0
13284,2644,2840,-6525,212,-4339,2025-01-27 13:54:33,0.0
13100,1400,2888,-6195,1685,-4071,2025-01-27 13:54:33,0.0
13048,-496,2800,-5591,2445,-2935,2025-01-27 13:54:33,0.0
12932,-1548,2216,-4327,2614,-867,2025-01-27 13:54:33,0.0
13228,-1040,1592,-3610,1693,695,2025-01-27 13:54:33,0.0
14544,-180,-568,-3175,-21,1726,2025-01-27 13:54:33,0.0
15048,-356,-936,-2930,-2575,2500,2025-01-27 13:54:33,0.0
15812,-700,-616,-3718,-3722,3008,2025-01-27 13:54:33,0.0
17068,-1340,1112,-4839,-2830,3678,2025-01-27 13:54:33,0.0
18784,-1156,2320,-5703,-927,3888,2025-01-27 13:54:33,0.0
21100,-496,2556,-6178,211,2623,2025-01-27 13:54:33,0.0
23744,-916,868,-6361,440,240,2025-01-27 13:54:33,0.0
27608,-1520,-1264,-6543,1701,-2518,2025-01-27 13:54:33,0.0
29852,-1160,-692,-4570,5141,-6854,2025-01-27 13:54:33,0.0
27100,492,-3924,-3471,5388,-9244,2025-01-27 13:54:33,0.0
22508,540,-5216,-4520,1920,-8465,2025-01-27 13:54:33,0.0
21764,-592,-2592,-6175,-2295,-5354,2025-01-27 13:54:34,0.0
22400,-2512,1080,-6645,-2837,-3075,2025-01-27 13:54:34,0.0
25188,796,3392,-6830,-1126,-2343,2025-01-27 13:54:34,0.0
27176,3968,8652,-4763,376,-4786,2025-01-27 13:54:34,0.0
25928,7700,12628,-75,199,-7450,2025-01-27 13:54:34,0.0
18540,10652,12060,4625,-3182,-6894,2025-01-27 13:54:34,
12180,7768,8888,6614,-8629,-1507,2025-01-27 13:54:34,0.0
14236,-796,5988,7235,-10059,2439,2025-01-27 13:54:34,0.0
16308,-4668,1532,3846,-7824,3695,2025-01-27 13:54:34,0.0
17620,-6984,3212,212,-2294,2807,2025-01-27 13:54:34,0.0
16484,-5512,5668,106,3561,2117,2025-01-27 13:54:34,0.0
16908,-160,5904,764,8053,2780,2025-01-27 13:54:34,0.0
18984,3856,5672,2120,11810,4723,2025-01-27 13:54:34,0.0
20464,4192,5564,4204,11640,5149,2025-01-27 13:54:34,0.0
18888,2168,5012,5987,7758,5761,2025-01-27 13:54:34,0.0
17624,172,4140,6096,1425,6856,2025-01-27 13:54:34,0.0
17092,-1704,4668,5915,-4731,7048,2025-01-27 13:54:34,0.0
14772,-2592,5460,6191,-8303,6689,2025-01-27 13:54:34,0.0
15896,-4408,4048,7057,-7799,5119,2025-01-27 13:54:34,0.0
14540,-3904,2068,7002,-1492,3114,2025-01-27 13:54:34,0.0
13028,-3168,2600,6467,3832,2843,2025-01-27 13:54:34,0.0
13936,-2924,3556,6758,6291,2958,2025-01-27 13:54:34,0.0
15028,-2056,1760,6575,5503,2825,2025-01-27 13:54:34,0.0
15896,-1980,700,5856,3671,2164,2025-01-27 13:54:34,0.0
16716,-2268,204,5174,2391,1162,2025-01-27 13:54:34,0.0
16916,-2512,672,4699,2191,273,2025-01-27 13:54:34,0.0
16748,-2456,1476,4328,2104,-341,2025-01-27 13:54:34,0.0
16976,-1936,1284,3819,1391,-606,2025-01-27 13:54:34,0.0
16652,-1324,2744,3514,1280,-1252,2025-01-27 13:54:34,0.0
17324,-1032,2088,3862,2044,-1763,2025-01-27 13:54:34,0.0
19076,-1668,2044,4888,3779,-1509,2025-01-27 13:54:34,0.0
21224,-2084,632,5945,5794,-640,2025-01-27 13:54:34,0.0
22848,-1496,108,5612,6718,546,2025-01-27 13:54:34,0.0
22544,-2684,1212,4514,4798,2452,2025-01-27 13:54:34,0.0
22904,-5116,1376,3645,998,5139,2025-01-27 13:54:34,0.0
25144,-7264,252,3183,-2495,6169,2025-01-27 13:54:34,0.0
27924,-5892,-2296,2870,-3814,3238,2025-01-27 13:54:34,0.0
26292,-3004,252,1370,-1307,1130,2025-01-27 13:54:34,0.0
24264,-2032,5916,2631,-194,3081,2025-01-27 13:54:34,0.0
21696,-5556,2468,2274,-1636,5120,2025-01-27 13:54:34,0.0
21000,-9156,3304,-509,-5907,7805,2025-01-27 13:54:34,0.0
25072,-10560,6932,-1848,-10387,6703,2025-01-27 13:54:34,0.0
26532,-5820,5792,-3143,-10271,87,2025-01-27 13:54:34,0.0
19384,-2776,7880,-6763,-11900,-2405,2025-01-27 13:54:34,0.0
15632,-1020,12024,-7706,-11153,-2142,2025-01-27 13:54:34,0.0
14136,1664,12300,-5799,-6518,-1317,2025-01-27 13:54:34,0.0
14408,3040,9780,-2631,21,-643,2025-01-27 13:54:34,0.0
18120,2396,5376,-541,8240,-1055,2025-01-27 13:54:34,0.0
21668,-1024,3020,-338,14258,-2604,2025-01-27 13:54:34,0.0
22500,-5020,2180,-1487,14392,-3980,2025-01-27 13:54:34,0.0
23236,-6524,2820,-3401,9319,-4725,2025-01-27 13:54:34,0.0
22824,-4608,4028,-4444,2819,-5503,2025-01-27 13:54:34,0.0
19480,-1612,2916,-4720,-1959,-6437,2025-01-27 13:54:35,0.0
16492,-56,-392,-3728,-3318,1216,2025-01-27 13:54:35,0.0
16696,-784,-256,-4419,-2063,319,2025-01-27 13:54:35,0.0
16768,-1520,128,-4626,-542,151,2025-01-27 13:54:35,0.0
20308,-2140,-184,-5069,2279,543,2025-01-27 13:54:35,0.0
23860,-1900,-364,-5664,4779,105,2025-01-27 13:54:35,0.0
26920,-944,-816,-6025,4489,-1886,2025-01-27 13:54:35,0.0
30052,172,860,-4508,4466,-5677,2025-01-27 13:54:35,0.0
24148,2452,-1780,-2303,2153,-7193,2025-01-27 13:54:35,0.0
23812,2552,-2028,-3016,-521,-6230,2025-01-27 13:54:35,0.0
25036,-2716,-172,-4580,-1531,-5474,2025-01-27 13:54:35,0.0
25080,-1148,2136,-5073,-1214,-5284,2025-01-27 13:54:35,0.0
26104,3192,10284,-2725,-417,-6917,2025-01-27 13:54:35,0.0
24656,7228,14460,1749,-842,-9501,2025-01-27 13:54:35,0.0
17680,8532,11012,4172,-3426,-8254,2025-01-27 13:54:35,0.0
12836,2524,9448,5134,-5363,-1863,2025-01-27 13:54:35,0.0
15236,-3088,5664,5877,-3274,3842,2025-01-27 13:54:35,0.0
18804,-4696,2680,1632,-320,5304,2025-01-27 13:54:35,0.0
18656,-6224,5492,-529,2001,5007,2025-01-27 13:54:35,0.0
18096,-4972,6424,-390,3889,5355,2025-01-27 13:54:35,0.0
18264,-1940,6188,657,6165,6088,2025-01-27 13:54:35,0.0
18668,1560,4160,889,7258,6587,2025-01-27 13:54:35,0.0
18980,3304,4880,1636,5840,6597,2025-01-27 13:54:35,0.0
17568,2640,6404,3871,3061,6152,2025-01-27 13:54:35,0.0
14596,896,5176,4830,-919,6419,2025-01-27 13:54:35,0.0
13584,-120,3876,4193,-5338,6700,2025-01-27 13:54:35,0.0
13112,-2420,4104,4051,-8050,6078,2025-01-27 13:54:35,0.0
13808,-3964,2612,4181,-4764,3794,2025-01-27 13:54:35,0.0
13116,-3912,2176,3410,1485,2691,2025-01-27 13:54:35,0.0
13772,-3436,4116,3917,6237,2762,2025-01-27 13:54:35,0.0
15612,-2472,2324,4628,7420,2812,2025-01-27 13:54:35,0.0
17092,-1824,352,4206,5646,2471,2025-01-27 13:54:35,0.0
18292,-2004,-376,3036,2038,1169,2025-01-27 13:54:35,0.0
17496,-2816,616,2305,273,-379,2025-01-27 13:54:35,0.0
17176,-3340,1076,2005,-169,-1550,2025-01-27 13:54:35,0.0
16060,-3004,860,2012,-62,-1840,2025-01-27 13:54:35,0.0
16232,-1880,1348,2459,360,-1852,2025-01-27 13:54:35,0.0
17076,-436,1596,3218,1331,-2147,2025-01-27 13:54:35,0.0
18284,56,2428,4083,2548,-2286,2025-01-27 13:54:35,0.0
19640,-700,2848,5373,4864,-1696,2025-01-27 13:54:35,0.0
21404,-1024,2204,6393,7554,8,2025-01-27 13:54:35,0.0
21564,-3212,488,6029,6817,1637,2025-01-27 13:54:35,0.0
22104,-6908,-1188,5054,5012,4367,2025-01-27 13:54:35,0.0
23632,-9976,-1736,4507,1909,7661,2025-01-27 13:54:35,0.0
27572,-9448,-1792,4226,-947,8024,2025-01-27 13:54:35,0.0
31060,-4816,512,2496,-590,3569,2025-01-27 13:54:35,0.0
24844,-692,6236,1610,-139,2003,2025-01-27 13:54:35,0.0
21260,-4572,4752,3627,-2288,4367,2025-01-27 13:54:35,0.0
22304,-7996,2840,1358,-3966,5040,2025-01-27 13:54:35,0.0
23856,-9536,6072,-2013,-7444,3958,2025-01-27 13:54:35,0.0
23200,-5124,5784,-3685,-10627,337,2025-01-27 13:54:35,0.0
19420,-3008,8856,-5816,-11808,-176,2025-01-27 13:54:35,0.0
17536,-1072,11744,-6129,-11233,763,2025-01-27 13:54:35,0.0
17984,2288,10140,-4649,-6617,635,2025-01-27 13:54:35,
18560,3676,7544,-3090,836,-885,2025-01-27 13:54:35,0.0
20372,2000,4584,-2069,7470,-3222,2025-01-27 13:54:35,0.0
21612,-2400,3692,-1646,10340,-5383,2025-01-27 13:54:35,0.0
20500,-5488,1748,-2624,8702,-6088,2025-01-27 13:54:36,0.0
19152,-6348,3412,-4332,3666,-5503,2025-01-27 13:54:36,0.0
18032,-4576,3652,-5204,-857,-5204,2025-01-27 13:54:36,0.0
15160,-1892,4380,-6256,-3941,-5663,2025-01-27 13:54:36,0.0
13424,-148,3092,-7441,-7159,-5566,2025-01-27 13:54:36,0.0
11824,1252,4468,-7679,-8583,-5282,2025-01-27 13:54:36,0.0
11540,2196,3536,-7242,-6438,-5461,2025-01-27 13:54:36,0.0
10704,2552,2408,-7257,-1553,-4276,2025-01-27 13:54:36,0.0
12000,1864,3524,-6603,2825,-3009,2025-01-27 13:54:36,0.0
14108,728,3112,-5591,4846,-2398,2025-01-27 13:54:36,0.0
15052,-312,2020,-5071,4617,-2081,2025-01-27 13:54:36,0.0
15412,-628,892,-4585,3124,-1615,2025-01-27 13:54:36,0.0
14152,128,520,-3609,934,-108,2025-01-27 13:54:36,0.0
13836,252,-272,-3063,83,1686,2025-01-27 13:54:36,0.0
14220,-384,-332,-2447,406,2883,2025-01-27 13:54:36,0.0
15568,-760,-2544,-3023,2349,3663,2025-01-27 13:54:36,0.0
17392,-1600,-2724,-4709,3799,3902,2025-01-27 13:54:36,0.0
19952,-1828,-40,-5836,4456,3466,2025-01-27 13:54:36,0.0
23696,-1884,2572,-6636,5337,1914,2025-01-27 13:54:36,0.0
26112,-1644,2592,-7283,4600,-822,2025-01-27 13:54:36,0.0
30748,-340,-688,-7788,2620,-4280,2025-01-27 13:54:36,0.0
32767,996,940,-3723,6626,-11804,2025-01-27 13:54:36,0.0
27308,3632,-3108,-1930,6915,-14605,2025-01-27 13:54:36,0.0
20864,3372,-132,-3589,3054,-10589,2025-01-27 13:54:36,0.0
20924,-1932,4952,-4554,-3175,-5149,2025-01-27 13:54:36,0.0
27476,1768,5956,-5699,-5145,-4008,2025-01-27 13:54:36,0.0
28732,6420,12680,-3968,-4355,-6661,2025-01-27 13:54:36,0.0
24100,8512,14272,524,-6128,-8302,2025-01-27 13:54:36,0.0
15756,5832,11236,4327,-10624,-4593,2025-01-27 13:54:36,0.0
13684,1096,8480,7824,-14082,-800,2025-01-27 13:54:36,0.0
12800,-2728,4264,7507,-13608,2442,2025-01-27 13:54:36,0.0
15928,-5456,2936,2201,-6164,3288,2025-01-27 13:54:36,0.0
16820,-6308,5400,-684,3630,1957,2025-01-27 13:54:36,0.0
15264,-4228,6548,-815,10478,1975,2025-01-27 13:54:36,0.0
16176,556,5924,-7,13949,3459,2025-01-27 13:54:36,0.0
18556,4048,6168,1766,15907,4722,2025-01-27 13:54:36,0.0
20964,6092,5780,3913,14858,5006,2025-01-27 13:54:36,0.0
19624,4412,6144,5980,9422,5509,2025-01-27 13:54:36,0.0
17192,1008,5248,6886,724,7326,2025-01-27 13:54:36,0.0
16800,-1300,4916,6850,-7355,7857,2025-01-27 13:54:36,0.0
15632,-2620,3936,6829,-13072,7097,2025-01-27 13:54:36,0.0
13376,-4540,4708,6930,-15100,5682,2025-01-27 13:54:36,0.0
13392,-4072,2140,6942,-8156,2708,2025-01-27 13:54:36,0.0
10716,-3120,3056,6172,651,2340,2025-01-27 13:54:36,0.0
11848,-2960,5224,7358,6842,3186,2025-01-27 13:54:36,0.0
14224,-2088,2820,8154,8134,3549,2025-01-27 13:54:36,0.0
16348,-1676,420,7288,6686,3256,2025-01-27 13:54:36,0.0
18228,-1316,-208,5977,3784,1907,2025-01-27 13:54:36,0.0
18848,-1472,152,5038,1908,-163,2025-01-27 13:54:36,0.0
17356,-1792,1036,4700,1646,-1702,2025-01-27 13:54:36,0.0
17976,-1628,1432,4864,2718,-2233,2025-01-27 13:54:36,0.0
18360,-1556,1724,5575,3044,-2252,2025-01-27 13:54:36,0.0
19468,-2008,1184,6486,2834,-1864,2025-01-27 13:54:36,0.0
20800,-2208,548,6561,2789,-1127,2025-01-27 13:54:36,0.0
21904,-1872,4,5838,2942,-294,2025-01-27 13:54:36,0.0
22784,-1712,380,4934,2837,535,2025-01-27 13:54:36,0.0
21344,-4248,204,4194,2405,2925,2025-01-27 13:54:36,0.0
21724,-6704,-1028,3585,1683,5834,2025-01-27 13:54:36,0.0
24464,-7352,-1732,3463,260,6256,2025-01-27 13:54:36,0.0
27564,-4800,-1228,2665,1427,3882,2025-01-27 13:54:36,0.0
26320,-1596,4624,1753,3327,3583,2025-01-27 13:54:36,0.0
24548,-2304,6152,2670,2000,5252,2025-01-27 13:54:36,0.0
22688,-5668,5280,1190,-3011,7830,2025-01-27 13:54:36,0.0
25368,-8572,7532,-768,-9752,7992,2025-01-27 13:54:36,0.0
30452,-8004,7400,-1805,-12218,1183,2025-01-27 13:54:37,0.0
19624,-3652,7032,-5986,-13461,-3445,2025-01-27 13:54:37,0.0
15060,-1988,10688,-8164,-12792,-3561,2025-01-27 13:54:37,0.0
12624,840,13000,-6737,-7766,-1517,2025-01-27 13:54:37,0.0
14516,2876,11424,-3223,200,97,2025-01-27 13:54:37,0.0
18832,980,6232,-13,11358,-988,2025-01-27 13:54:37,0.0
22168,-2564,1972,-881,15741,-3678,2025-01-27 13:54:37,0.0
23196,-6772,984,-3542,12361,-5699,2025-01-27 13:54:37,0.0
21420,-6884,3224,-5834,5508,-6173,2025-01-27 13:54:37,0.0
19264,-3644,4968,-6737,-1574,-6177,2025-01-27 13:54:37,0.0
15284,-860,4672,-7320,-6374,-6250,2025-01-27 13:54:37,0.0
12416,1024,4472,-7960,-9989,-5733,2025-01-27 13:54:37,0.0
11408,1672,4584,-8046,-10892,-5629,2025-01-27 13:54:37,0.0
10024,1960,3648,-7399,-5809,-5906,2025-01-27 13:54:37,0.0
9692,1916,2956,-7194,416,-4671,2025-01-27 13:54:37,0.0
12032,1204,3276,-6909,5272,-3260,2025-01-27 13:54:37,0.0
15652,260,2200,-6692,7063,-3374,2025-01-27 13:54:37,0.0
16788,-304,1316,-6494,5788,-3399,2025-01-27 13:54:37,0.0
16232,-20,1700,-5251,2143,-2085,2025-01-27 13:54:37,0.0
15020,1024,2160,-3392,-1706,185,2025-01-27 13:54:37,0.0
15116,864,116,-2224,-4024,2105,2025-01-27 13:54:37,0.0
14340,24,496,-1783,-4751,3080,2025-01-27 13:54:37,0.0
19024,-1764,560,-5035,4335,2680,2025-01-27 13:54:37,0.0
22228,-1580,924,-5890,6318,1828,2025-01-27 13:54:37,0.0
25412,-1576,272,-6598,7234,218,2025-01-27 13:54:37,0.0
31268,-2736,-348,-7237,7523,-3321,2025-01-27 13:54:37,0.0
31828,-1236,480,-5550,6857,-7951,2025-01-27 13:54:37,0.0
26940,2204,-380,-4389,3161,-10035,2025-01-27 13:54:37,0.0
25332,2756,368,-4743,-231,-9382,2025-01-27 13:54:37,0.0
24628,620,4136,-5238,-1683,-7232,2025-01-27 13:54:37,0.0
27044,1308,8124,-4506,-689,-6522,2025-01-27 13:54:37,0.0
30756,3888,13472,-2187,1423,-9478,2025-01-27 13:54:37,0.0
28972,5756,15992,2460,333,-13568,2025-01-27 13:54:37,
20976,8296,9192,5298,-6143,-13428,2025-01-27 13:54:37,0.0
9200,5540,7220,6077,-14665,-5383,2025-01-27 13:54:37,0.0
8412,-2252,8168,8672,-17452,3451,2025-01-27 13:54:37,0.0
12084,-4588,4304,7211,-12677,8663,2025-01-27 13:54:37,0.0
16260,-5976,4420,2809,-4493,8737,2025-01-27 13:54:37,0.0
17324,-6612,6284,861,3674,6644,2025-01-27 13:54:37,0.0
16668,-4124,6036,1243,9709,4992,2025-01-27 13:54:37,0.0
16720,1936,4088,1483,12869,5247,2025-01-27 13:54:37,0.0
19052,5360,5552,2507,12910,5384,2025-01-27 13:54:37,0.0
21936,5524,6236,5414,10972,4538,2025-01-27 13:54:37,0.0
18128,2200,4428,7686,5775,5638,2025-01-27 13:54:37,0.0
15544,-868,3928,7256,-1119,7666,2025-01-27 13:54:37,0.0
14188,-3204,4516,6327,-9017,8050,2025-01-27 13:54:37,0.0
14088,-5592,4796,5883,-13316,6534,2025-01-27 13:54:37,0.0
14576,-5476,2448,5748,-8448,3348,2025-01-27 13:54:37,0.0
11640,-3416,3456,4370,350,2692,2025-01-27 13:54:37,0.0
12588,-3144,5984,5329,7175,3226,2025-01-27 13:54:37,0.0
14048,-2448,3084,6084,8223,3382,2025-01-27 13:54:37,0.0
16800,-1980,148,5461,6666,3114,2025-01-27 13:54:37,0.0
17832,-1780,-980,4109,3462,1860,2025-01-27 13:54:37,0.0
17736,-2332,0,2853,1179,-190,2025-01-27 13:54:37,0.0
16876,-2628,1876,2513,772,-1804,2025-01-27 13:54:37,0.0
16568,-2212,2496,2683,1268,-2326,2025-01-27 13:54:37,0.0
16648,-1352,3016,3399,2398,-2160,2025-01-27 13:54:37,0.0
17940,-1356,2216,4607,2725,-1960,2025-01-27 13:54:37,0.0
18592,-1472,1572,5126,2026,-1187,2025-01-27 13:54:38,0.0
20708,-1856,2252,5209,1913,-308,2025-01-27 13:54:38,0.0
21956,-2060,1848,5008,2168,256,2025-01-27 13:54:38,0.0
20920,-4248,-16,4179,2007,1319,2025-01-27 13:54:38,0.0
21084,-6640,-1584,3376,2449,4239,2025-01-27 13:54:38,0.0
22588,-8236,-1708,3055,1959,7320,2025-01-27 13:54:38,0.0
26748,-6384,-684,2883,-256,6488,2025-01-27 13:54:38,0.0
27648,-3200,3252,1729,1860,3201,2025-01-27 13:54:38,0.0
24308,-1984,6380,2229,2302,3319,2025-01-27 13:54:38,0.0
23024,-5484,3152,1986,1601,4952,2025-01-27 13:54:38,0.0
23068,-8448,4504,-1840,-1907,7063,2025-01-27 13:54:38,0.0
27188,-9680,7796,-3084,-6585,5018,2025-01-27 13:54:38,0.0
25648,-5180,6912,-4831,-9961,-101,2025-01-27 13:54:38,0.0
20684,-2176,10628,-7749,-13500,-1631,2025-01-27 13:54:38,0.0
17392,1228,13408,-6700,-12665,-2331,2025-01-27 13:54:38,0.0
15472,4380,12532,-4729,-8211,-1942,2025-01-27 13:54:38,0.0
17212,4772,8324,-2566,-226,-2772,2025-01-27 13:54:38,0.0
18584,296,5640,-1357,8371,-4542,2025-01-27 13:54:38,0.0
19452,-3936,3192,-1456,12618,-5832,2025-01-27 13:54:38,0.0
18600,-7632,1656,-2358,10705,-5560,2025-01-27 13:54:38,0.0
19264,-7136,1336,-3895,6169,-5164,2025-01-27 13:54:38,0.0
19740,-4272,1860,-5130,1900,-5757,2025-01-27 13:54:38,0.0
16924,-1464,2940,-6496,-1797,-6453,2025-01-27 13:54:38,0.0
14888,364,3428,-7158,-5089,-5992,2025-01-27 13:54:38,0.0
12604,1624,4992,-7323,-7465,-5067,2025-01-27 13:54:38,0.0
12304,2112,4624,-6917,-7801,-4603,2025-01-27 13:54:38,0.0
12048,2828,3084,-6649,-4808,-4461,2025-01-27 13:54:38,0.0
11840,2104,3336,-6586,-301,-3875,2025-01-27 13:54:38,0.0
13064,772,3300,-6150,3060,-3171,2025-01-27 13:54:38,0.0
14656,-112,2164,-5177,4360,-2425,2025-01-27 13:54:38,0.0
15124,-252,1440,-4154,3077,-1711,2025-01-27 13:54:38,0.0
14748,348,1080,-3156,303,-352,2025-01-27 13:54:38,0.0
14596,560,96,-2594,-2255,1504,2025-01-27 13:54:38,0.0
14532,-216,-56,-2249,-2879,2701,2025-01-27 13:54:38,0.0
14744,-1148,-796,-2572,-1508,3310,2025-01-27 13:54:38,0.0
15552,-1608,-796,-3488,546,3584,2025-01-27 13:54:38,0.0
18384,-1372,-108,-5247,2459,2940,2025-01-27 13:54:38,0.0
21196,-1232,792,-6184,4230,1905,2025-01-27 13:54:38,0.0
24796,-1724,864,-6175,6161,781,2025-01-27 13:54:38,0.0
28608,-2096,-944,-6227,7454,-1404,2025-01-27 13:54:38,0.0
32767,-892,-16,-5070,8617,-7943,2025-01-27 13:54:38,0.0
27504,668,-1108,-3939,5365,-10999,2025-01-27 13:54:38,0.0
19952,1636,-3372,-5275,-1815,-8745,2025-01-27 13:54:38,0.0
21912,-516,916,-6101,-4611,-5885,2025-01-27 13:54:38,0.0
22644,-1928,3376,-7231,-442,-2265,2025-01-27 13:54:38,0.0
29604,620,7488,-8277,3059,-3541,2025-01-27 13:54:38,0.0
30756,1292,13264,-5878,1844,-7927,2025-01-27 13:54:38,0.0
24812,4340,15392,-1235,-3547,-10700,2025-01-27 13:54:38,0.0
15492,8116,13616,3139,-10905,-7653,2025-01-27 13:54:38,0.0
7184,7584,12032,6244,-16831,586,2025-01-27 13:54:38,0.0
13100,2464,8196,7483,-13697,5557,2025-01-27 13:54:38,0.0
17584,-348,2876,3903,-4873,4754,2025-01-27 13:54:38,0.0
17664,-3184,4668,822,4585,2507,2025-01-27 13:54:38,0.0
16128,-3120,7168,1374,10526,2120,2025-01-27 13:54:38,0.0
16128,-292,7036,2835,11705,3977,2025-01-27 13:54:38,0.0
18624,2916,5560,4088,10942,5847,2025-01-27 13:54:39,0.0
20396,4204,6056,5920,8247,6476,2025-01-27 13:54:39,0.0
19596,2572,6060,8117,4415,6837,2025-01-27 13:54:39,0.0
17216,-980,4860,9149,25,8204,2025-01-27 13:54:39,0.0
15512,-3064,4748,8376,-6116,9022,2025-01-27 13:54:39,0.0
14712,-3824,4124,6793,-10881,7913,2025-01-27 13:54:39,0.0
19020,-2452,2452,5954,1754,-1538,2025-01-27 13:54:39,0.0
20248,-2660,2620,5868,635,46,2025-01-27 13:54:39,0.0
22868,-2456,744,5576,1417,893,2025-01-27 13:54:39,0.0
22372,-3608,-1812,4372,3416,2040,2025-01-27 13:54:39,0.0
22896,-5900,-2640,3376,4379,5208,2025-01-27 13:54:39,0.0
24436,-6496,-604,3720,2300,6671,2025-01-27 13:54:39,0.0
27384,-3612,1404,3905,359,4306,2025-01-27 13:54:39,0.0
26064,-288,4736,3362,1266,3593,2025-01-27 13:54:39,0.0
24360,-3388,4584,3808,1880,5320,2025-01-27 13:54:39,0.0
21976,-6396,4044,658,-1017,8649,2025-01-27 13:54:39,0.0
24056,-10324,7480,-2429,-7197,10027,2025-01-27 13:54:39,0.0
30840,-11120,6328,-2339,-10284,4200,2025-01-27 13:54:39,0.0
22192,-3108,5452,-6144,-11874,-1934,2025-01-27 13:54:39,0.0
18628,-288,10336,-8162,-13265,-4547,2025-01-27 13:54:39,
14632,1948,13540,-7046,-11272,-4539,2025-01-27 13:54:39,0.0
12876,3756,13836,-3601,-6712,-2529,2025-01-27 13:54:39,0.0
15788,4160,7768,-481,1475,-1547,2025-01-27 13:54:39,0.0
18732,-56,3564,720,11089,-3007,2025-01-27 13:54:39,0.0
20676,-4548,748,-1309,15687,-4436,2025-01-27 13:54:39,0.0
11660,2496,2912,-5327,-4958,-5309,2025-01-27 13:54:39,0.0
11204,1520,3184,-5290,-906,-4358,2025-01-27 13:54:39,0.0
12452,372,3188,-5036,1987,-3100,2025-01-27 13:54:39,0.0
14336,-496,2368,-4371,3400,-2726,2025-01-27 13:54:39,0.0
14416,-540,1064,-3591,3080,-2184,2025-01-27 13:54:39,0.0
14160,176,468,-2656,1371,-642,2025-01-27 13:54:39,0.0
14292,572,-156,-1747,-649,1283,2025-01-27 13:54:39,0.0
15220,208,-1048,-1576,-1478,2480,2025-01-27 13:54:39,0.0
16760,-428,-2896,-1952,-1050,2939,2025-01-27 13:54:39,0.0
16260,-1108,-1332,-2819,106,3185,2025-01-27 13:54:39,0.0
17384,-1184,-284,-3781,1180,2628,2025-01-27 13:54:39,0.0
19056,-1048,352,-4628,2006,1934,2025-01-27 13:54:39,0.0
21496,-1144,1488,-5105,3344,1260,2025-01-27 13:54:39,0.0
29416,-2500,-896,-5818,5745,-1918,2025-01-27 13:54:39,0.0
32767,-120,-1604,-3853,8257,-9537,2025-01-27 13:54:39,0.0
26888,2880,-3852,-3358,5764,-12017,2025-01-27 13:54:39,0.0
22636,4092,-1128,-4357,515,-9444,2025-01-27 13:54:39,0.0
21780,-564,5776,-4181,-3924,-5359,2025-01-27 13:54:39,0.0
25772,1388,5556,-3418,-3444,-3693,2025-01-27 13:54:39,0.0
28420,4840,11180,-1813,-1273,-6389,2025-01-27 13:54:39,0.0
27540,6560,14480,3023,-1226,-10505,2025-01-27 13:54:39,0.0
20360,7972,10364,5904,-5238,-10640,2025-01-27 13:54:39,0.0
13232,4616,9552,7737,-10479,-5844,2025-01-27 13:54:39,0.0
12568,-2200,7640,9373,-13078,806,2025-01-27 13:54:40,0.0
14212,-5300,4460,6941,-10703,5361,2025-01-27 13:54:40,0.0
17312,-7040,4188,3238,-5062,5786,2025-01-27 13:54:40,0.0
17412,-7004,4544,1256,2599,4829,2025-01-27 13:54:40,0.0
17096,-3592,4244,430,8830,4420,2025-01-27 13:54:40,0.0
17140,1252,4880,719,12685,5181,2025-01-27 13:54:40,0.0
18464,4056,5984,1938,13059,6025,2025-01-27 13:54:40,0.0
20360,4828,5840,4288,10712,5842,2025-01-27 13:54:40,0.0
21136,-7320,100,2149,3986,5961,2025-01-27 13:54:40,0.0
24764,-7544,-1284,2506,1595,8613,2025-01-27 13:54:40,0.0
29632,-3908,-668,2287,87,5894,2025-01-27 13:54:40,0.0
16796,4044,8944,-2763,440,-2241,2025-01-27 13:54:40,0.0
18580,1040,5652,-1701,8430,-3364,2025-01-27 13:54:40,0.0
20688,-3600,2892,-2392,12998,-4765,2025-01-27 13:54:40,0.0
20044,-7256,1992,-3941,11867,-5366,2025-01-27 13:54:40,0.0
19912,-6228,3024,-5667,6964,-5262,2025-01-27 13:54:40,0.0
19000,-3160,3236,-6219,1691,-5756,2025-01-27 13:54:40,0.0
16164,-596,3760,-6961,-3084,-5976,2025-01-27 13:54:40,0.0
13936,892,4696,-7327,-7003,-5486,2025-01-27 13:54:40,0.0
12864,1660,4764,-7271,-9337,-4945,2025-01-27 13:54:40,0.0
12604,2216,4436,-6773,-8123,-5039,2025-01-27 13:54:40,0.0
11572,2408,2800,-6526,-3525,-4661,2025-01-27 13:54:40,0.0
11428,1716,3056,-6308,995,-3563,2025-01-27 13:54:40,0.0
12696,588,3128,-5713,3293,-2503,2025-01-27 13:54:40,0.0
14424,-388,2052,-4919,3463,-1859,2025-01-27 13:54:40,0.0
15220,-236,1224,-3944,1900,-894,2025-01-27 13:54:40,0.0
15028,412,412,-2689,-447,935,2025-01-27 13:54:40,0.0
15336,68,-796,-2078,-2205,2368,2025-01-27 13:54:40,0.0
15472,-860,-1556,-2038,-3452,3328,2025-01-27 13:54:40,0.0
16000,-1484,-1508,-2691,-3152,3876,2025-01-27 13:54:40,0.0
16960,-1252,-436,-3885,-1432,3360,2025-01-27 13:54:40,0.0
18124,-704,1496,-5223,711,2309,2025-01-27 13:54:40,0.0
20872,-1112,2104,-5555,2931,1121,2025-01-27 13:54:40,0.0
24100,-2440,976,-5594,5571,-240,2025-01-27 13:54:40,0.0
32248,-2060,-656,-5412,9668,-4928,2025-01-27 13:54:40,0.0
31552,-200,-2164,-3887,11382,-10201,2025-01-27 13:54:40,0.0
26732,1816,-4744,-4189,8396,-11661,2025-01-27 13:54:40,0.0
22940,2480,-1904,-5901,1428,-8888,2025-01-27 13:54:40,0.0
24096,-1992,4092,-6236,-2731,-6090,2025-01-27 13:54:40,0.0
27228,4,6124,-6604,-2987,-4328,2025-01-27 13:54:41,0.0
30500,2916,11344,-5337,-2604,-7602,2025-01-27 13:54:41,0.0
27976,5476,13504,-1716,-4987,-11478,2025-01-27 13:54:41,0.0
16776,8696,10780,2007,-11799,-9987,2025-01-27 13:54:41,0.0
8244,6412,10640,5042,-17298,-2591,2025-01-27 13:54:41,0.0
10696,-708,10132,9328,-17270,3651,2025-01-27 13:54:41,0.0
16192,-2724,4572,7464,-8879,4734,2025-01-27 13:54:41,0.0
18048,-4664,3932,1258,2995,2486,2025-01-27 13:54:41,0.0
16644,-4732,6380,-985,12329,1115,2025-01-27 13:54:41,0.0
16688,-1380,5764,318,17178,2033,2025-01-27 13:54:41,0.0
18604,2812,4956,2142,17847,4067,2025-01-27 13:54:41,0.0
20848,5664,4664,4549,14707,5886,2025-01-27 13:54:41,0.0
20996,5476,5856,6938,8358,7293,2025-01-27 13:54:41,0.0
18160,1724,5544,8531,636,9131,2025-01-27 13:54:41,0.0
17000,-1588,5068,8647,-6527,10071,2025-01-27 13:54:41,0.0
15180,-3252,4888,7938,-12973,9100,2025-01-27 13:54:41,0.0
14728,-5020,2860,6794,-17004,6528,2025-01-27 13:54:41,0.0
13396,-4636,528,5512,-10914,2638,2025-01-27 13:54:41,0.0
9568,-3484,2584,3735,-3193,1882,2025-01-27 13:54:41,0.0
18448,-944,-1688,3990,1693,969,2025-01-27 13:54:41,0.0
18092,-1968,288,2992,358,-991,2025-01-27 13:54:41,0.0
17056,-1772,1852,2915,603,-2053,2025-01-27 13:54:41,0.0
16964,-1688,1212,3791,1666,-1989,2025-01-27 13:54:41,0.0
17700,-1608,1404,5086,1929,-1635,2025-01-27 13:54:41,0.0
17800,-1588,2104,5709,1780,-1267,2025-01-27 13:54:41,0.0
19900,-1404,2700,5493,2579,-320,2025-01-27 13:54:41,0.0
22128,-1108,2764,5303,4918,305,2025-01-27 13:54:41,0.0
21412,-3476,156,4777,5280,1275,2025-01-27 13:54:41,0.0
21700,-6592,-2464,3866,4921,4572,2025-01-27 13:54:41,0.0
23732,-8568,-2812,3628,3143,9018,2025-01-27 13:54:41,0.0
28760,-6912,-316,2855,1231,8544,2025-01-27 13:54:41,0.0
29952,-3332,5620,1099,1983,5191,2025-01-27 13:54:41,0.0
22648,-3788,4068,1569,-1487,4758,2025-01-27 13:54:41,
22868,-7076,2056,-686,-4983,5709,2025-01-27 13:54:41,0.0
23568,-8608,4416,-3747,-7631,5491,2025-01-27 13:54:41,0.0
25700,-7176,6412,-4635,-9659,2794,2025-01-27 13:54:41,0.0
22292,-3440,8188,-5897,-10862,182,2025-01-27 13:54:41,0.0
19972,-1420,11236,-6919,-12434,-930,2025-01-27 13:54:41,0.0
17516,800,12276,-6312,-11342,-1620,2025-01-27 13:54:41,0.0
16060,3596,11848,-4811,-6949,-1428,2025-01-27 13:54:41,0.0
16840,4732,8632,-2581,-170,-1830,2025-01-27 13:54:41,0.0
19412,1508,5708,-287,9515,-3371,2025-01-27 13:54:41,0.0
21612,-3104,2408,173,13475,-4808,2025-01-27 13:54:41,0.0
20628,-6072,1768,-1173,10487,-4802,2025-01-27 13:54:41,0.0
20704,-5860,2680,-2833,4050,-4888,2025-01-27 13:54:41,0.0
19004,-3648,2744,-3836,-1425,-5701,2025-01-27 13:54:41,0.0
15956,-1648,2956,-4899,-5176,-5793,2025-01-27 13:54:41,0.0
13204,-16,3752,-5386,-7819,-5159,2025-01-27 13:54:41,0.0
11264,1272,4028,-5420,-8855,-4087,2025-01-27 13:54:41,0.0
11848,2176,2984,-5111,-6414,-4012,2025-01-27 13:54:41,0.0
11456,2212,1980,-5108,-1910,-3865,2025-01-27 13:54:41,0.0
12204,1216,2608,-5100,2228,-3395,2025-01-27 13:54:41,0.0
13480,-624,3040,-4554,4597,-2614,2025-01-27 13:54:41,0.0
14796,-1180,1888,-3667,4446,-2115,2025-01-27 13:54:41,0.0
14652,-424,480,-2960,2595,-1274,2025-01-27 13:54:41,0.0
13852,0,-348,-2353,541,162,2025-01-27 13:54:41,0.0
13284,-252,800,-1820,-910,1969,2025-01-27 13:54:42,0.0
14224,-480,28,-1772,-505,3096,2025-01-27 13:54:42,0.0
15472,-848,-876,-2691,1384,3415,2025-01-27 13:54:42,0.0
17372,-1152,-840,-4006,3668,2638,2025-01-27 13:54:42,0.0
18768,-916,152,-4988,4742,1639,2025-01-27 13:54:42,0.0
16820,-984,4212,-35,12665,3287,2025-01-27 13:54:42,0.0
17908,3316,4996,1097,14998,4797,2025-01-27 13:54:42,0.0
19576,5084,5712,3414,12615,5907,2025-01-27 13:54:42,0.0
19996,3980,6072,5965,7146,6597,2025-01-27 13:54:42,0.0
14048,-4072,4148,5799,-13364,6024,2025-01-27 13:54:42,0.0
14016,-5708,3392,5944,-11793,3335,2025-01-27 13:54:42,0.0
10872,-3768,2020,4527,-1456,1876,2025-01-27 13:54:42,0.0
10792,-3320,5076,5045,5749,2549,2025-01-27 13:54:42,0.0
13328,-2584,4168,6378,8924,2773,2025-01-27 13:54:42,0.0
15208,-1932,1592,6422,9029,2710,2025-01-27 13:54:42,0.0
17360,-1652,-840,5437,6668,2121,2025-01-27 13:54:42,0.0
18560,-1640,-1684,4145,3292,754,2025-01-27 13:54:42,0.0
18696,-2124,-352,3111,1364,-1166,2025-01-27 13:54:42,0.0
17564,-2500,768,2591,823,-2378,2025-01-27 13:54:42,0.0
17708,-1832,1352,2973,1326,-2726,2025-01-27 13:54:42,0.0
20068,-1172,2796,6199,2136,-635,2025-01-27 13:54:42,0.0
21568,-1740,816,6045,3490,508,2025-01-27 13:54:42,0.0
21772,-4324,-2148,5061,4525,1960,2025-01-27 13:54:42,0.0
21772,-6756,-3080,3985,4351,5052,2025-01-27 13:54:42,0.0
23824,-8092,-1456,3900,1600,7564,2025-01-27 13:54:42,0.0
27988,-5760,416,3556,-403,5775,2025-01-27 13:54:42,0.0
27048,-1324,4432,2518,936,3330,2025-01-27 13:54:42,0.0
23780,-1880,5440,3169,732,3825,2025-01-27 13:54:42,0.0
22084,-5796,3860,1566,-883,5335,2025-01-27 13:54:42,0.0
22148,-8660,5840,-1900,-5204,7113,2025-01-27 13:54:42,0.0
26460,-10180,7520,-2948,-9473,4781,2025-01-27 13:54:43,0.0
23120,-5072,5424,-5164,-10087,-814,2025-01-27 13:54:43,0.0
18680,-2468,8012,-7859,-11547,-1877,2025-01-27 13:54:43,0.0
16372,444,10828,-7669,-10240,-2030,2025-01-27 13:54:43,0.0
15224,2908,12052,-5494,-5987,-1462,2025-01-27 13:54:43,0.0
16672,4256,8988,-2471,-211,-1583,2025-01-27 13:54:43,0.0
23812,-860,724,-4807,5728,4,2025-01-27 13:54:43,0.0
32528,-2096,1592,-4145,9762,-3807,2025-01-27 13:54:43,0.0
32767,-752,-1152,-2407,12206,-9834,2025-01-27 13:54:43,0.0
30380,568,-3856,-2692,8498,-12985,2025-01-27 13:54:43,0.0
23796,1568,-1912,-4727,-631,-11117,2025-01-27 13:54:43,0.0
23368,792,4684,-5114,-8946,-7291,2025-01-27 13:54:43,0.0
23640,1808,6548,-4383,-9926,-4222,2025-01-27 13:54:43,0.0
26680,3608,8164,-3419,-7169,-4990,2025-01-27 13:54:43,0.0
28220,3924,11084,-1276,-5025,-7681,2025-01-27 13:54:43,0.0
26392,4576,11676,1913,-5526,-10198,2025-01-27 13:54:43,0.0
19116,5252,10364,3976,-8914,-9344,2025-01-27 13:54:43,0.0
11180,3832,9976,5688,-13759,-3903,2025-01-27 13:54:43,0.0
9736,-1648,8928,7653,-15830,2532,2025-01-27 13:54:43,0.0
16836,-4724,2264,3393,-2650,4282,2025-01-27 13:54:43,0.0
17828,-4624,2192,-892,9758,2829,2025-01-27 13:54:43,0.0
17140,-1804,3972,-1491,18032,2741,2025-01-27 13:54:43,0.0
18384,2196,3744,-314,19871,4281,2025-01-27 13:54:43,0.0
19900,4892,4652,2166,15626,6344,2025-01-27 13:54:43,0.0
20932,4916,7252,5648,7107,7812,2025-01-27 13:54:43,0.0
20308,260,8276,9087,-662,8141,2025-01-27 13:54:43,0.0
14976,-1416,3000,6840,10820,2159,2025-01-27 13:54:43,0.0
17708,-1656,-472,6907,10393,2099,2025-01-27 13:54:43,0.0
19016,-1424,-1216,5717,6329,956,2025-01-27 13:54:43,0.0
18376,-1588,-1088,4099,1823,-840,2025-01-27 13:54:43,0.0
17936,-1776,-24,3208,-6,-2328,2025-01-27 13:54:43,0.0
16944,-1448,1188,3288,9,-2618,2025-01-27 13:54:43,0.0
17396,-640,2296,4215,1631,-2655,2025-01-27 13:54:43,0.0
18512,-568,2820,5380,2608,-2537,2025-01-27 13:54:43,0.0
19240,-1208,2432,6239,2727,-1737,2025-01-27 13:54:43,0.0
20368,-1372,2432,6297,2486,107,2025-01-27 13:54:43,0.0
21572,-872,2524,5769,1544,1458,2025-01-27 13:54:43,0.0
20372,-3428,-392,4545,-521,2927,2025-01-27 13:54:43,0.0
20940,-7484,-2540,3229,-1592,5907,2025-01-27 13:54:43,0.0
22904,-9528,-3656,3249,-535,8580,2025-01-27 13:54:43,0.0
26744,-7052,-1208,2845,1660,8434,2025-01-27 13:54:43,0.0
28040,-1436,3128,235,5090,6908,2025-01-27 13:54:43,0.0
25548,-2368,7220,755,4803,6522,2025-01-27 13:54:43,0.0
22164,-4872,5048,1173,32,8756,2025-01-27 13:54:43,0.0
23952,-7372,3744,-1751,-5278,10669,2025-01-27 13:54:43,0.0
28008,-9532,3508,-4068,-8262,8674,2025-01-27 13:54:43,0.0
29456,-7660,3452,-5786,-9120,2928,2025-01-27 13:54:43,
23240,-2896,7944,-8132,-11305,-1698,2025-01-27 13:54:43,0.0
20120,108,12204,-7244,-13853,-4708,2025-01-27 13:54:43,0.0
14948,2540,13200,-5430,-12751,-5141,2025-01-27 13:54:44,0.0
12560,4920,11212,-3678,-7396,-3024,2025-01-27 13:54:44,0.0
15492,3984,6484,-1159,3840,-1872,2025-01-27 13:54:44,0.0
18744,-764,3952,599,14109,-3162,2025-01-27 13:54:44,0.0
19548,-4872,2220,-190,18715,-3843,2025-01-27 13:54:44,0.0
20988,-6736,2096,-1991,16212,-4242,2025-01-27 13:54:44,0.0
20988,-4656,2520,-3169,8498,-5325,2025-01-27 13:54:44,0.0
18456,-2252,3232,-3946,81,-5864,2025-01-27 13:54:44,0.0
15960,-776,2964,-5127,-5952,-5287,2025-01-27 13:54:44,0.0
14324,-300,3268,-5766,-9402,-4375,2025-01-27 13:54:44,0.0
13500,820,3208,-5862,-9033,-4095,2025-01-27 13:54:44,0.0
12820,1440,2928,-5756,-5275,-4015,2025-01-27 13:54:44,0.0
12120,1244,2908,-5669,317,-3747,2025-01-27 13:54:44,0.0
12880,208,3120,-5203,4937,-3232,2025-01-27 13:54:44,0.0
14244,-128,2276,-4406,6807,-2752,2025-01-27 13:54:44,0.0
15452,28,936,-3492,6190,-2252,2025-01-27 13:54:44,0.0
15672,684,1020,-2433,3929,-1284,2025-01-27 13:54:44,0.0
15188,740,1924,-1064,696,635,2025-01-27 13:54:44,0.0
15504,-196,1356,-268,-1431,1942,2025-01-27 13:54:44,0.0
16396,-1396,316,-1897,-101,2139,2025-01-27 13:54:44,0.0
16984,-620,964,-2520,1197,1486,2025-01-27 13:54:44,0.0
18496,-304,2404,-3034,2366,935,2025-01-27 13:54:44,0.0
21540,-1384,3392,-3192,3382,11,2025-01-27 13:54:44,0.0
26480,-1804,1820,-3148,5157,-1928,2025-01-27 13:54:44,0.0
31428,-864,700,-1870,8523,-6941,2025-01-27 13:54:44,0.0
30536,168,-1604,-1064,8680,-11820,2025-01-27 13:54:44,0.0
25388,1856,100,-1450,4413,-13078,2025-01-27 13:54:44,0.0
23312,800,5040,-2572,-2099,-10517,2025-01-27 13:54:44,0.0
23068,392,6612,-2358,-5665,-6619,2025-01-27 13:54:44,0.0
25884,2704,6784,-1422,-5387,-5148,2025-01-27 13:54:44,0.0
25936,4128,7792,1028,-5361,-5820,2025-01-27 13:54:44,0.0
18304,-2056,332,3445,1396,-344,2025-01-27 13:54:44,0.0
18408,-2244,236,3180,279,-1231,2025-01-27 13:54:44,0.0
16568,-1768,1408,2982,-1220,-1662,2025-01-27 13:54:44,0.0
16996,-1328,1756,3002,-2040,-2060,2025-01-27 13:54:45,0.0
16932,-1456,2280,3228,-1893,-2062,2025-01-27 13:54:45,0.0
16520,-2132,3156,3714,-1099,-1159,2025-01-27 13:54:45,0.0
17740,-2596,2312,4190,648,274,2025-01-27 13:54:45,0.0
18780,-3244,720,3691,3153,1622,2025-01-27 13:54:45,0.0
19780,-4812,-492,2436,5930,3707,2025-01-27 13:54:45,0.0
21480,-6064,-468,1999,6337,6040,2025-01-27 13:54:45,0.0
26448,-4012,-1548,2600,3450,5836,2025-01-27 13:54:45,0.0
28904,-1744,-200,2455,2615,3213,2025-01-27 13:54:45,0.0
26464,-2372,5492,2856,3182,3413,2025-01-27 13:54:45,0.0
24488,-4300,4492,2513,-267,4530,2025-01-27 13:54:45,0.0
22536,-7780,3872,-1435,-4523,5517,2025-01-27 13:54:45,0.0
25028,-11552,5192,-4520,-7665,5219,2025-01-27 13:54:45,0.0
26024,-8716,4344,-6533,-9723,-519,2025-01-27 13:54:45,0.0
20304,-4248,7776,-10021,-11432,-1907,2025-01-27 13:54:45,0.0
18736,-1004,11052,-10518,-12559,-2172,2025-01-27 13:54:45,0.0
17184,2628,10736,-8770,-7621,-3319,2025-01-27 13:54:45,0.0
15104,4404,9032,-6102,-549,-3034,2025-01-27 13:54:45,0.0
17048,3472,5256,-3572,7990,-2627,2025-01-27 13:54:45,0.0
20344,-204,3232,-1886,13227,-3714,2025-01-27 13:54:45,0.0
21476,-3352,2072,-2055,14028,-5220,2025-01-27 13:54:45,0.0
20848,-4776,3092,-2984,9136,-4932,2025-01-27 13:54:45,0.0
19688,-2636,4028,-3435,641,-4373,2025-01-27 13:54:45,0.0
16888,-768,3868,-3499,-4724,-4297,2025-01-27 13:54:45,0.0
14336,920,3260,-3962,-8237,-4345,2025-01-27 13:54:45,0.0
12944,1236,3876,-4505,-8956,-4304,2025-01-27 13:54:45,0.0
12576,716,3816,-4731,-6496,-4400,2025-01-27 13:54:45,0.0
11440,40,3476,-5152,-1337,-4243,2025-01-27 13:54:45,0.0
11400,-1384,3296,-5680,2711,-3120,2025-01-27 13:54:45,0.0
14160,-2080,3008,-5992,4534,-2289,2025-01-27 13:54:45,0.0
16088,-2072,2264,-6703,3220,-2311,2025-01-27 13:54:45,0.0
15172,-1544,2296,-6932,668,-1531,2025-01-27 13:54:45,0.0
14124,-796,1984,-6228,-1085,301,2025-01-27 13:54:45,0.0
14424,-532,1108,-5389,-1234,1884,2025-01-27 13:54:45,0.0
14932,-424,-20,-5352,-456,2774,2025-01-27 13:54:45,0.0
17044,-764,-1408,-5525,622,3326,2025-01-27 13:54:45,0.0
16720,-728,636,-5728,1866,3691,2025-01-27 13:54:45,0.0
28616,812,2952,-4923,4579,-6413,2025-01-27 13:54:45,0.0
28140,1184,536,-2107,6398,-9634,2025-01-27 13:54:45,0.0
23044,1980,-2876,-1831,3350,-8412,2025-01-27 13:54:45,0.0
18672,224,-2220,-2801,-4209,-4486,2025-01-27 13:54:45,0.0
24408,-2204,-896,-3090,-7666,-2976,2025-01-27 13:54:45,0.0
23720,-3060,-2712,-6300,-2221,-3266,2025-01-27 13:54:45,0.0
24196,1168,3984,-7174,2881,-3757,2025-01-27 13:54:45,0.0
25940,2220,9388,-4810,3362,-4946,2025-01-27 13:54:45,0.0
25848,3640,11176,-1032,598,-5525,2025-01-27 13:54:45,0.0
22812,5328,10156,2067,-4114,-3806,2025-01-27 13:54:45,0.0
18284,3680,10056,3867,-9075,-234,2025-01-27 13:54:45,0.0
17036,-100,10248,5753,-13211,1942,2025-01-27 13:54:45,0.0
15888,-2012,5756,4067,-13279,2208,2025-01-27 13:54:45,0.0
15424,-3908,3552,1528,-7699,1973,2025-01-27 13:54:45,0.0
15180,-4608,2964,806,498,1754,2025-01-27 13:54:45,0.0
14972,-1848,4024,1075,7387,2028,2025-01-27 13:54:45,0.0
15752,2708,4244,1723,10565,4037,2025-01-27 13:54:46,0.0
19192,4144,4880,3480,10207,4830,2025-01-27 13:54:46,0.0
20148,2680,4916,5850,7506,4851,2025-01-27 13:54:46,0.0
18872,-264,3980,6971,2991,5687,2025-01-27 13:54:46,0.0
17640,-1356,3600,6561,-3117,6161,2025-01-27 13:54:46,0.0
17112,-1976,3468,6017,-8159,5577,2025-01-27 13:54:46,0.0
15976,-2764,3368,6044,-10260,4640,2025-01-27 13:54:46,0.0
14632,-3208,2772,6224,-9297,3888,2025-01-27 13:54:46,0.0
14180,-3324,2236,6326,-5036,3026,2025-01-27 13:54:46,0.0
16192,-1128,1540,4421,276,-1331,2025-01-27 13:54:46,0.0
17184,-656,2172,5256,2385,-1707,2025-01-27 13:54:46,
18336,-1604,3120,6786,5210,-1823,2025-01-27 13:54:46,0.0
18684,-2288,3124,7713,7061,-507,2025-01-27 13:54:46,0.0
20072,-2800,2108,7157,7332,1323,2025-01-27 13:54:46,0.0
20868,-4776,120,5502,5447,2874,2025-01-27 13:54:46,0.0
22960,-7696,-1344,4347,3647,4497,2025-01-27 13:54:46,0.0
26116,-8188,-1860,4722,1935,5192,2025-01-27 13:54:46,0.0
27612,-5912,868,4384,2558,4928,2025-01-27 13:54:46,0.0
26352,-3476,4216,3155,3433,5644,2025-01-27 13:54:46,0.0
23816,-6336,4200,1874,-1180,6861,2025-01-27 13:54:46,0.0
24632,-8908,2340,-150,-5885,6280,2025-01-27 13:54:46,0.0
26284,-8668,2016,-2466,-7171,3374,2025-01-27 13:54:46,0.0
22672,-5336,4056,-4498,-7991,917,2025-01-27 13:54:46,0.0
20100,-2824,8300,-5225,-10470,567,2025-01-27 13:54:46,0.0
18608,-100,10140,-4719,-13238,-40,2025-01-27 13:54:46,0.0
16676,2764,8600,-3620,-12891,-632,2025-01-27 13:54:46,0.0
16096,4824,6548,-2491,-7369,-647,2025-01-27 13:54:46,0.0
16900,3988,5828,-769,729,-1445,2025-01-27 13:54:46,0.0
17960,-272,5796,868,8524,-2445,2025-01-27 13:54:46,0.0
19308,-3888,3836,856,12868,-3247,2025-01-27 13:54:46,0.0
19692,-5516,2400,-1,13250,-3695,2025-01-27 13:54:46,0.0
19924,-4884,1636,-1222,9763,-4145,2025-01-27 13:54:46,0.0
19860,-3504,2240,-2231,3789,-4728,2025-01-27 13:54:46,0.0
18108,-2268,2968,-3286,-1607,-4992,2025-01-27 13:54:46,0.0
16052,-1644,2884,-4308,-5220,-4924,2025-01-27 13:54:46,0.0
14912,-740,2492,-5284,-6983,-4652,2025-01-27 13:54:46,0.0
14152,360,2972,-5651,-6128,-4420,2025-01-27 13:54:46,0.0
13424,1308,2544,-5647,-3387,-4076,2025-01-27 13:54:46,0.0
13172,716,2492,-5374,758,-3416,2025-01-27 13:54:46,0.0
13676,-360,2556,-4849,3807,-2737,2025-01-27 13:54:46,0.0
15228,-480,1696,-4352,5277,-2362,2025-01-27 13:54:48,0.0
16184,-400,1348,-4145,4532,-2144,2025-01-27 13:54:48,0.0
16644,-288,1708,-3761,2268,-1560,2025-01-27 13:54:48,0.0
15768,284,2152,-3171,373,-536,2025-01-27 13:54:48,0.0
15628,344,1200,-2583,-331,448,2025-01-27 13:54:48,0.0
16080,-420,-600,-2622,-406,966,2025-01-27 13:54:48,0.0
16944,-1504,-1208,-3218,-192,1087,2025-01-27 13:54:48,0.0
26876,564,-676,-5872,6320,-7577,2025-01-27 13:54:48,0.0
17288,-1888,4272,5424,-2099,6548,2025-01-27 13:54:49,0.0
17080,628,2368,-3924,454,-1493,2025-01-27 13:54:49,0.0
16872,544,2072,-2815,-123,-839,2025-01-27 13:54:49,0.0
16508,780,1180,-1888,-1320,74,2025-01-27 13:54:49,0.0
15012,168,1920,-844,-3316,1707,2025-01-27 13:54:49,0.0
15392,-896,712,-204,-4468,2994,2025-01-27 13:54:49,0.0
14820,-1500,728,47,-4505,3868,2025-01-27 13:54:49,0.0
15028,-1828,1060,-147,-3521,4152,2025-01-27 13:54:49,0.0
16056,-1456,1392,-143,-1533,3651,2025-01-27 13:54:49,0.0
22720,300,624,1353,2922,1689,2025-01-27 13:54:49,0.0
24960,-1312,-548,1211,3653,229,2025-01-27 13:54:49,0.0
24748,-4636,-1600,1037,3408,-817,2025-01-27 13:54:49,0.0
21664,-5548,-2112,615,1627,-1084,2025-01-27 13:54:49,0.0
18228,-2844,-2308,-547,-1462,-794,2025-01-27 13:54:49,0.0
19220,-400,12,-980,-2284,-1140,2025-01-27 13:54:49,0.0
20684,-1808,844,-1392,274,-1842,2025-01-27 13:54:49,0.0
24084,-2420,1624,-2515,3435,-1856,2025-01-27 13:54:49,0.0
27252,-1892,4700,-2260,5686,-3341,2025-01-27 13:54:49,0.0
28192,508,9088,-470,7053,-6026,2025-01-27 13:54:49,0.0
24824,4916,12148,2232,5692,-8542,2025-01-27 13:54:49,0.0
19520,10008,9704,3498,26,-8744,2025-01-27 13:54:49,0.0
10080,9164,7348,3954,-8006,-4128,2025-01-27 13:54:49,0.0
14660,-1076,4728,8755,-7730,1978,2025-01-27 13:54:49,0.0
18140,-2268,4124,8550,-1367,2022,2025-01-27 13:54:49,0.0
19288,-892,7744,8050,4383,1581,2025-01-27 13:54:49,0.0
20424,1268,9364,9318,7265,1492,2025-01-27 13:54:49,0.0
20756,3076,7316,11174,5903,1808,2025-01-27 13:54:49,0.0
21520,3008,5728,13033,1974,2007,2025-01-27 13:54:49,0.0
21084,-304,6164,15549,-662,2400,2025-01-27 13:54:49,0.0
18516,-1760,5088,16512,-2558,3631,2025-01-27 13:54:49,0.0
16732,-2552,6060,16135,-4931,4775,2025-01-27 13:54:49,0.0
16028,-2832,6796,15584,-7166,5080,2025-01-27 13:54:49,0.0
16252,-2880,6300,15659,-7748,4288,2025-01-27 13:54:49,0.0
16192,-2916,5268,16043,-5726,2934,2025-01-27 13:54:49,0.0
16688,-2400,3504,16303,-632,1258,2025-01-27 13:54:49,0.0
16516,-1724,4020,16257,4957,664,2025-01-27 13:54:49,0.0
17564,-1760,4368,17066,5846,566,2025-01-27 13:54:49,0.0
18216,-1704,3852,17424,3929,521,2025-01-27 13:54:49,0.0
19000,-1468,3828,17458,728,231,2025-01-27 13:54:49,0.0
18788,-1260,3524,17630,-1131,-410,2025-01-27 13:54:49,0.0
18736,-1588,3744,17881,-1137,-1282,2025-01-27 13:54:49,0.0
18696,-1880,4000,18142,-607,-2025,2025-01-27 13:54:49,0.0
18836,-1940,3616,18495,-323,-2740,2025-01-27 13:54:49,0.0
18736,-2012,3760,18690,-470,-3198,2025-01-27 13:54:49,0.0
18748,-2052,3740,18673,-618,-3304,2025-01-27 13:54:49,0.0
19000,-2540,4320,18819,-617,-3021,2025-01-27 13:54:49,0.0
19660,-2708,3560,19212,-623,-2762,2025-01-27 13:54:49,0.0
20012,-3080,2268,19278,-265,-2390,2025-01-27 13:54:49,0.0
20084,-3976,2744,19492,-396,-1419,2025-01-27 13:54:49,0.0
19480,-4244,3404,19530,-2349,-525,2025-01-27 13:54:49,0.0
19592,-5200,4552,19586,-5270,-189,2025-01-27 13:54:49,0.0
18536,-5484,3744,19480,-5150,-147,2025-01-27 13:54:49,0.0
17408,-6428,1880,19373,-2937,295,2025-01-27 13:54:49,0.0
17244,-4904,808,17938,-326,-141,2025-01-27 13:54:49,0.0
18412,-2684,3280,16093,1702,-1320,2025-01-27 13:54:49,0.0
19064,-1264,4444,15395,2949,-1568,2025-01-27 13:54:49,0.0
20280,-32,5268,14632,4508,-1349,2025-01-27 13:54:49,0.0
20372,-104,5948,13668,5870,-308,2025-01-27 13:54:49,0.0
19520,-2652,5252,12111,5323,2574,2025-01-27 13:54:49,0.0
21096,-2172,4016,11395,2702,3291,2025-01-27 13:54:49,0.0
21068,784,3180,12194,53,1996,2025-01-27 13:54:49,0.0
21040,3412,3908,13658,353,397,2025-01-27 13:54:50,0.0
20068,4924,4568,14414,910,-982,2025-01-27 13:54:50,
18976,5340,5140,15531,783,-1760,2025-01-27 13:54:50,0.0
18432,5172,4816,16658,428,-1686,2025-01-27 13:54:50,0.0
18580,4152,4152,17536,510,-1329,2025-01-27 13:54:50,0.0
18692,2540,3036,17999,211,-1144,2025-01-27 13:54:50,0.0
18536,1516,2408,18278,34,-615,2025-01-27 13:54:50,0.0
18084,732,3276,18331,-458,-80,2025-01-27 13:54:50,0.0
17516,488,3288,18114,-1274,233,2025-01-27 13:54:50,0.0
17420,316,2524,17977,-1209,300,2025-01-27 13:54:50,0.0
17844,340,1752,17643,-50,301,2025-01-27 13:54:50,0.0
18032,32,1880,17187,1503,238,2025-01-27 13:54:50,0.0
18316,-284,2524,16485,2503,125,2025-01-27 13:54:50,0.0
18584,-824,2320,15510,2068,283,2025-01-27 13:54:50,0.0
18700,-536,2016,14615,1400,495,2025-01-27 13:54:50,0.0
18840,20,1940,13687,945,710,2025-01-27 13:54:50,0.0
18828,452,1640,13136,551,704,2025-01-27 13:54:50,0.0
19056,532,2344,12650,285,451,2025-01-27 13:54:50,0.0
18940,708,3116,12372,554,-10,2025-01-27 13:54:50,0.0
18560,904,3144,12029,1166,-154,2025-01-27 13:54:50,0.0
19156,1036,3224,11737,1980,-185,2025-01-27 13:54:50,0.0
19456,1320,3124,11465,2171,-356,2025-01-27 13:54:50,0.0
19412,1576,2800,11442,2037,-616,2025-01-27 13:54:50,0.0
18448,1332,3312,11498,1061,-423,2025-01-27 13:54:50,0.0
18272,1448,3304,11456,674,-198,2025-01-27 13:54:50,0.0
18408,1344,3180,11202,1439,-158,2025-01-27 13:54:50,0.0
18340,716,2612,11032,2504,2,2025-01-27 13:54:50,0.0
18132,420,1980,10557,2844,331,2025-01-27 13:54:50,0.0
17880,-32,2044,9958,1790,863,2025-01-27 13:54:50,0.0
18236,60,2448,9345,465,1234,2025-01-27 13:54:50,0.0
18044,324,2580,8892,-368,1488,2025-01-27 13:54:50,0.0
17924,476,2348,8513,-434,1872,2025-01-27 13:54:50,0.0
18200,100,2096,8048,152,2179,2025-01-27 13:54:50,0.0
18252,-52,1796,7266,462,2352,2025-01-27 13:54:50,0.0
18424,-468,1336,6475,296,2636,2025-01-27 13:54:50,0.0
18808,-424,1496,5969,226,2894,2025-01-27 13:54:50,0.0
19264,128,1308,5575,295,2958,2025-01-27 13:54:50,0.0
19864,776,1312,5044,618,2689,2025-01-27 13:54:50,0.0
19948,652,1544,4587,602,2615,2025-01-27 13:54:50,0.0
20744,312,2232,4316,293,2445,2025-01-27 13:54:50,0.0
21124,36,2636,4230,-232,1977,2025-01-27 13:54:50,0.0
20412,-480,2524,4234,-667,1377,2025-01-27 13:54:50,0.0
19012,-468,2128,4274,-574,1194,2025-01-27 13:54:50,0.0
17604,456,2524,4193,-146,1454,2025-01-27 13:54:50,0.0
17068,1612,3180,3888,403,1978,2025-01-27 13:54:50,0.0
17860,2240,3620,3401,1405,2009,2025-01-27 13:54:50,0.0
18444,2644,3504,2741,1942,1472,2025-01-27 13:54:50,0.0
18860,2772,3928,2708,1288,499,2025-01-27 13:54:50,0.0
18632,2304,4128,3326,-371,-452,2025-01-27 13:54:50,0.0
18568,1192,4840,4328,-1721,-1188,2025-01-27 13:54:50,0.0
18668,-84,5544,5183,-1669,-1186,2025-01-27 13:54:50,0.0
19288,-2384,5700,5914,-375,-278,2025-01-27 13:54:50,0.0
20248,-4392,4416,6461,977,1361,2025-01-27 13:54:50,0.0
21192,-4160,3556,6719,1259,2799,2025-01-27 13:54:50,0.0
21228,-812,3308,7036,484,3675,2025-01-27 13:54:50,0.0
19916,1380,2472,7244,-858,4032,2025-01-27 13:54:50,0.0
18676,1804,2200,7706,-1564,4106,2025-01-27 13:54:50,0.0
17980,1052,2416,8393,-1209,4330,2025-01-27 13:54:50,0.0
17804,-816,2756,9197,-862,4731,2025-01-27 13:54:50,0.0
17820,-2208,3668,10214,-1199,5165,2025-01-27 13:54:50,0.0
17024,-3176,4000,11065,-2087,5603,2025-01-27 13:54:50,0.0
16636,-3452,3828,11580,-2888,5751,2025-01-27 13:54:50,0.0
16744,-2908,2544,11593,-2531,4913,2025-01-27 13:54:51,0.0
17276,-2228,1028,11189,271,3222,2025-01-27 13:54:51,0.0
17276,-1428,1720,10699,2562,2802,2025-01-27 13:54:51,0.0
18636,-1376,1364,11288,2392,2993,2025-01-27 13:54:51,0.0
19404,-1980,204,11580,316,3118,2025-01-27 13:54:51,0.0
19452,-2816,-176,11239,-2345,2924,2025-01-27 13:54:51,0.0
19616,-3460,660,10510,-3932,2202,2025-01-27 13:54:51,0.0
18896,-3636,1160,9565,-4306,1256,2025-01-27 13:54:51,0.0
17664,-3276,1424,8730,-3507,782,2025-01-27 13:54:51,0.0
17212,-2772,1528,8168,-2060,359,2025-01-27 13:54:51,0.0
16800,-2156,1360,7858,-421,43,2025-01-27 13:54:51,0.0
17100,-1792,1060,7616,536,-85,2025-01-27 13:54:51,0.0
18068,-2304,116,7220,616,-150,2025-01-27 13:54:51,0.0
19644,-2968,104,6924,697,-165,2025-01-27 13:54:51,0.0
20948,-3904,104,7051,647,344,2025-01-27 13:54:51,0.0
21100,-4244,-44,7054,-408,1056,2025-01-27 13:54:51,0.0
21028,-3612,672,6926,-2765,1783,2025-01-27 13:54:51,0.0
20856,-2172,840,6751,-3706,1750,2025-01-27 13:54:51,0.0
20724,-1360,596,6926,-3269,1123,2025-01-27 13:54:51,0.0
20596,-1440,552,7539,-2276,661,2025-01-27 13:54:51,0.0
21480,-1260,-1164,8274,-806,104,2025-01-27 13:54:51,0.0
21432,-1788,40,8961,338,609,2025-01-27 13:54:51,0.0
21480,-3688,2724,10229,792,2757,2025-01-27 13:54:51,0.0
22784,-5244,1760,9956,492,4366,2025-01-27 13:54:51,0.0
24632,-6316,-872,7781,-621,4314,2025-01-27 13:54:51,0.0
25840,-6396,-860,5374,-2120,2655,2025-01-27 13:54:51,0.0
25132,-5888,2108,3515,-4477,52,2025-01-27 13:54:51,0.0
21356,-4812,4036,2334,-6831,-1417,2025-01-27 13:54:51,0.0
17068,-4584,6448,1680,-8072,-2016,2025-01-27 13:54:51,0.0
14516,-3764,6652,1579,-7519,-2666,2025-01-27 13:54:51,0.0
12868,-2184,6496,2038,-5120,-3199,2025-01-27 13:54:51,0.0
12260,484,6068,2422,-224,-2420,2025-01-27 13:54:51,0.0
16252,1132,5324,2625,5815,-1479,2025-01-27 13:54:51,0.0
20432,-936,4260,2558,9432,-1747,2025-01-27 13:54:51,0.0
22160,-3032,2104,1399,10185,-2291,2025-01-27 13:54:51,0.0
22456,-4132,3060,348,6380,-3059,2025-01-27 13:54:51,0.0
21280,-3312,3648,67,958,-3689,2025-01-27 13:54:51,0.0
20064,-2144,2472,-247,-2867,-3762,2025-01-27 13:54:51,0.0
18532,-1876,4008,-264,-4408,-4047,2025-01-27 13:54:51,0.0
17232,-1100,2976,-463,-4232,-4980,2025-01-27 13:54:51,
16084,-372,1692,-1209,-3116,-5736,2025-01-27 13:54:51,0.0
14908,208,2140,-1711,-1798,-5948,2025-01-27 13:54:51,0.0
14404,-56,2480,-1702,-764,-5479,2025-01-27 13:54:51,0.0
15404,-340,2168,-1764,189,-4982,2025-01-27 13:54:51,0.0
16448,24,1404,-1840,466,-4853,2025-01-27 13:54:51,0.0
15964,476,1400,-1568,-313,-4530,2025-01-27 13:54:51,0.0
15044,884,1596,-961,-1463,-3322,2025-01-27 13:54:51,0.0
14660,424,1060,-338,-1636,-1767,2025-01-27 13:54:51,0.0
14440,-164,524,181,-456,-410,2025-01-27 13:54:51,0.0
15032,-456,-732,175,460,354,2025-01-27 13:54:51,0.0
15460,-712,-816,-155,764,1067,2025-01-27 13:54:51,0.0
16776,-1176,-2032,-1102,140,1826,2025-01-27 13:54:51,0.0
17948,-1468,-2424,-2342,-1468,2474,2025-01-27 13:54:51,0.0
18720,-1488,-904,-3446,-2746,2590,2025-01-27 13:54:51,0.0
19736,-836,1136,-4213,-2681,2202,2025-01-27 13:54:51,0.0
22556,-700,1660,-5279,-644,781,2025-01-27 13:54:51,0.0
24740,-456,-72,-6129,1807,-1161,2025-01-27 13:54:51,0.0
28416,164,-1256,-5618,4419,-4903,2025-01-27 13:54:51,0.0
26076,1468,-3324,-4284,5172,-7631,2025-01-27 13:54:51,0.0
21188,2588,-3300,-4191,3731,-6678,2025-01-27 13:54:51,0.0
22904,1640,-620,-3999,2135,-4936,2025-01-27 13:54:51,0.0
25192,348,1080,-4252,1305,-3759,2025-01-27 13:54:51,0.0
26232,2880,2744,-4555,-603,-3749,2025-01-27 13:54:52,0.0
26212,4940,6792,-2478,-2327,-5150,2025-01-27 13:54:52,0.0
22624,7032,7840,537,-6212,-5371,2025-01-27 13:54:52,0.0
18036,5292,7380,3151,-11143,-2131,2025-01-27 13:54:52,0.0
15472,904,8452,6596,-12301,-63,2025-01-27 13:54:52,0.0
14296,-1788,7392,6423,-9870,1373,2025-01-27 13:54:52,0.0
15856,-4432,5512,2991,-3052,2125,2025-01-27 13:54:52,0.0
16716,-5372,5436,645,5600,2033,2025-01-27 13:54:52,0.0
16632,-4064,5156,538,11328,2706,2025-01-27 13:54:52,0.0
18272,-596,4952,1209,12927,3870,2025-01-27 13:54:52,0.0
19260,2936,4752,2303,11400,4902,2025-01-27 13:54:52,0.0
19708,4092,4400,3580,6752,5838,2025-01-27 13:54:52,0.0
19012,2260,4180,4957,1490,6688,2025-01-27 13:54:52,0.0
17320,-536,4192,5968,-3431,7276,2025-01-27 13:54:52,0.0
16184,-2672,4432,6154,-6951,6935,2025-01-27 13:54:52,0.0
16016,-3576,3384,5994,-7448,4723,2025-01-27 13:54:52,0.0
13448,-3364,3076,4917,-3167,2717,2025-01-27 13:54:52,0.0
12492,-3424,3716,4006,1194,2464,2025-01-27 13:54:52,0.0
13868,-3372,4016,4497,4865,2531,2025-01-27 13:54:52,0.0
15084,-2920,2720,4856,6044,2906,2025-01-27 13:54:52,0.0
16672,-2608,1652,4635,4766,2900,2025-01-27 13:54:52,0.0
17824,-2172,392,3949,2509,2213,2025-01-27 13:54:52,0.0
18296,-2188,308,3285,449,837,2025-01-27 13:54:52,0.0
17176,-2104,340,2947,-50,-198,2025-01-27 13:54:52,0.0
16492,-1624,1156,3045,138,-969,2025-01-27 13:54:52,0.0
16148,-1292,368,3388,256,-1380,2025-01-27 13:54:52,0.0
16120,-1256,684,3782,249,-1468,2025-01-27 13:54:52,0.0
16876,-1560,2136,4414,406,-1538,2025-01-27 13:54:52,0.0
18184,-1932,3096,4800,2154,-1342,2025-01-27 13:54:52,0.0
19704,-2196,3376,5245,5250,-361,2025-01-27 13:54:52,0.0
20488,-3064,1864,5532,7798,1421,2025-01-27 13:54:52,0.0
21432,-5048,-844,4757,7891,3851,2025-01-27 13:54:52,0.0
23776,-6996,-2512,3896,5873,5978,2025-01-27 13:54:52,0.0
27064,-7096,-2664,3382,1764,6235,2025-01-27 13:54:52,0.0
29524,-4492,348,2343,322,4172,2025-01-27 13:54:52,0.0
27000,-1880,6084,1691,-682,3680,2025-01-27 13:54:52,0.0
23124,-4508,4264,2020,-4143,5393,2025-01-27 13:54:52,0.0
21968,-8252,1736,-713,-8673,7129,2025-01-27 13:54:52,0.0
25616,-9980,3648,-2906,-11594,4756,2025-01-27 13:54:52,0.0
21328,-3496,4540,-5640,-10716,284,2025-01-27 13:54:52,0.0
18900,-1004,9836,-6230,-10563,-637,2025-01-27 13:54:52,0.0
17060,476,11956,-4728,-8029,-529,2025-01-27 13:54:52,0.0
16128,1332,10772,-2678,-3063,23,2025-01-27 13:54:52,0.0
17740,2368,7628,-55,2281,-319,2025-01-27 13:54:52,0.0
19916,2900,3532,1402,6688,-1669,2025-01-27 13:54:52,0.0
23372,-472,1564,1175,9885,-3782,2025-01-27 13:54:52,0.0
23540,-3044,1304,49,8971,-5096,2025-01-27 13:54:52,0.0
22880,-4224,2096,-1473,4617,-5358,2025-01-27 13:54:52,0.0
19936,-3432,4428,-2343,-1139,-5125,2025-01-27 13:54:52,0.0
17548,-2604,4928,-2522,-5969,-5149,2025-01-27 13:54:52,0.0
14204,-2316,4572,-2861,-9308,-5170,2025-01-27 13:54:52,0.0
12720,-1748,3924,-3446,-9962,-5380,2025-01-27 13:54:52,0.0
10848,40,2312,-4498,-6137,-6221,2025-01-27 13:54:52,0.0
9896,1504,2508,-5242,-1092,-5662,2025-01-27 13:54:52,0.0
11664,2548,2792,-4731,2937,-4570,2025-01-27 13:54:52,0.0
13648,2400,2268,-3672,5781,-3921,2025-01-27 13:54:52,0.0
15484,1120,1208,-2932,6671,-3422,2025-01-27 13:54:52,0.0
16556,-32,684,-2335,5007,-2738,2025-01-27 13:54:52,0.0
15932,-252,1244,-1428,1849,-1370,2025-01-27 13:54:52,0.0
15580,16,416,-655,-797,474,2025-01-27 13:54:52,0.0
15400,-216,-1276,-451,-1540,1551,2025-01-27 13:54:52,0.0
15148,-856,-1344,-1405,-1163,2163,2025-01-27 13:54:53,0.0
15840,-1936,-1212,-2449,-305,2540,2025-01-27 13:54:53,0.0
17644,-2184,-1216,-3781,946,2318,2025-01-27 13:54:53,0.0
19608,-1904,-1136,-5478,1817,1708,2025-01-27 13:54:53,0.0
21908,-2428,964,-6382,2401,649,2025-01-27 13:54:53,0.0
24944,-2472,1784,-7135,3497,-1099,2025-01-27 13:54:53,0.0
29284,-1272,1276,-7209,5333,-4808,2025-01-27 13:54:53,0.0
27888,1352,-1056,-5641,6193,-9439,2025-01-27 13:54:53,0.0
23036,3200,-5020,-5847,3977,-9778,2025-01-27 13:54:53,0.0
20976,1836,-2560,-6193,506,-6232,2025-01-27 13:54:53,0.0
24484,-1268,2628,-5475,594,-3741,2025-01-27 13:54:53,0.0
26664,2468,3448,-5846,381,-2511,2025-01-27 13:54:53,0.0
27072,5236,8540,-4214,-982,-4677,2025-01-27 13:54:53,0.0
24712,8556,11796,207,-3663,-6249,2025-01-27 13:54:53,0.0
18380,10104,9332,3296,-7641,-4535,2025-01-27 13:54:53,0.0
16528,4584,10232,6718,-10762,-827,2025-01-27 13:54:53,0.0
16284,268,7380,8663,-11277,422,2025-01-27 13:54:53,
16224,-4556,4356,5144,-7453,1057,2025-01-27 13:54:53,0.0
16604,-6924,5228,1876,-299,1814,2025-01-27 13:54:53,0.0
16312,-6696,6404,1703,6283,2814,2025-01-27 13:54:53,0.0
17428,-3104,4560,1863,10618,4226,2025-01-27 13:54:53,0.0
18608,788,3604,1845,12776,5191,2025-01-27 13:54:53,0.0
19932,3180,2916,2041,11514,5579,2025-01-27 13:54:53,0.0
18872,2760,3492,2916,6895,5888,2025-01-27 13:54:53,0.0
17884,420,4264,4245,66,6528,2025-01-27 13:54:53,0.0
16288,-1720,4412,5132,-6163,6720,2025-01-27 13:54:53,0.0
15308,-2892,3308,5221,-9300,5958,2025-01-27 13:54:53,0.0
15372,-4124,1804,5267,-8837,4205,2025-01-27 13:54:53,0.0
12780,-3360,768,4389,-2966,2506,2025-01-27 13:54:53,0.0
10984,-3284,2088,4093,3582,2276,2025-01-27 13:54:53,0.0
12468,-2872,4416,4903,7522,2714,2025-01-27 13:54:53,0.0
14828,-2064,2684,5380,8987,2830,2025-01-27 13:54:53,0.0
17052,-1760,968,5057,8243,2478,2025-01-27 13:54:53,0.0
18444,-1716,64,4177,5437,1618,2025-01-27 13:54:53,0.0
18784,-1952,0,3125,2815,37,2025-01-27 13:54:53,0.0
16524,-2476,476,1907,67,-1216,2025-01-27 13:54:53,0.0
16676,-2508,820,1751,-318,-1663,2025-01-27 13:54:53,0.0
17264,-1872,1704,2237,1369,-2085,2025-01-27 13:54:53,0.0
17388,-1608,2288,3172,2913,-2195,2025-01-27 13:54:53,0.0
18176,-1864,2984,4102,3964,-1692,2025-01-27 13:54:53,0.0
19272,-1692,3204,4583,4575,-265,2025-01-27 13:54:53,0.0
21000,-1940,2800,4812,5073,1433,2025-01-27 13:54:53,0.0
21768,-4644,292,4467,5424,3773,2025-01-27 13:54:53,0.0
22744,-7432,-1364,4183,5222,6522,2025-01-27 13:54:53,0.0
24996,-8264,-1792,3938,2595,7693,2025-01-27 13:54:53,0.0
28260,-6008,676,2634,1470,5867,2025-01-27 13:54:53,0.0
27452,-3116,5056,1199,1275,4523,2025-01-27 13:54:53,0.0
23056,-5124,4728,1702,-774,5687,2025-01-27 13:54:53,0.0
22364,-8552,3804,-1468,-4326,8491,2025-01-27 13:54:53,0.0
26228,-11120,5488,-4329,-7303,8006,2025-01-27 13:54:53,0.0
28892,-7256,4684,-6113,-8292,1936,2025-01-27 13:54:53,0.0
21936,-2792,7320,-8866,-10113,-384,2025-01-27 13:54:53,0.0
19640,-12,11852,-8714,-11952,-2097,2025-01-27 13:54:53,0.0
16408,1580,13568,-6200,-9470,-3420,2025-01-27 13:54:53,0.0
15056,3480,11860,-3507,-4203,-3309,2025-01-27 13:54:53,0.0
18300,4532,5764,-1943,3438,-3374,2025-01-27 13:54:53,0.0
20948,-92,5440,-1238,9986,-4960,2025-01-27 13:54:53,0.0
20380,-4364,4336,-1804,12167,-6014,2025-01-27 13:54:53,0.0
18696,-6076,3364,-2751,8436,-5419,2025-01-27 13:54:53,0.0
18392,-3312,2512,-3255,1767,-4777,2025-01-27 13:54:53,0.0
16296,-1200,2816,-3714,-2272,-4702,2025-01-27 13:54:54,0.0
15972,-644,2400,-4343,-4811,-4733,2025-01-27 13:54:54,0.0
13744,-724,3564,-5013,-5810,-4829,2025-01-27 13:54:54,0.0
13248,-408,3696,-5545,-5229,-4641,2025-01-27 13:54:54,0.0
13360,672,3240,-5865,-1798,-4175,2025-01-27 13:54:54,0.0
13924,836,2824,-5775,431,-4010,2025-01-27 13:54:54,0.0
14648,584,2560,-5296,1677,-3596,2025-01-27 13:54:54,0.0
14488,484,2108,-4382,1283,-2954,2025-01-27 13:54:54,0.0
14172,816,1092,-3135,227,-1625,2025-01-27 13:54:54,0.0
14488,136,200,-1972,-947,89,2025-01-27 13:54:54,0.0
15484,-1092,-1304,-1686,-1201,822,2025-01-27 13:54:54,0.0
14344,-1912,-24,-1953,-321,1243,2025-01-27 13:54:54,0.0
15152,-2156,-976,-2042,438,2109,2025-01-27 13:54:54,0.0
15460,-1036,148,-2666,1274,2899,2025-01-27 13:54:54,0.0
21000,348,3232,-4641,3588,947,2025-01-27 13:54:54,0.0
24584,-1556,1692,-5165,5391,-1132,2025-01-27 13:54:54,0.0
28384,-4784,-2972,-6184,6887,-3290,2025-01-27 13:54:54,0.0
32752,-4712,-2464,-4901,8705,-8334,2025-01-27 13:54:54,0.0
27356,-664,-3156,-3536,6624,-10767,2025-01-27 13:54:54,0.0
22092,2284,-1524,-5707,-764,-8283,2025-01-27 13:54:54,0.0
20544,868,4652,-7196,-6637,-4677,2025-01-27 13:54:54,0.0
24728,1928,5856,-6927,-5140,-2387,2025-01-27 13:54:54,0.0
28612,5836,12492,-3863,-248,-5298,2025-01-27 13:54:54,0.0
29508,7924,13448,412,663,-8930,2025-01-27 13:54:54,0.0
24244,8792,10392,3757,-3280,-9661,2025-01-27 13:54:54,0.0
15572,6200,9368,7336,-10834,-5108,2025-01-27 13:54:54,0.0
12344,-320,8364,10065,-16827,1,2025-01-27 13:54:54,0.0
12344,-4756,4352,7715,-17609,4062,2025-01-27 13:54:54,0.0
14900,-7292,4944,2901,-12718,5183,2025-01-27 13:54:54,0.0
18116,-7912,5400,626,-1099,2646,2025-01-27 13:54:54,0.0
14764,-3788,3684,-256,11200,1765,2025-01-27 13:54:54,0.0
16284,1752,2520,-856,18405,4289,2025-01-27 13:54:54,0.0
19684,5128,3440,51,19178,4792,2025-01-27 13:54:54,0.0
20632,4460,5132,2547,13073,4096,2025-01-27 13:54:54,0.0
17100,900,5796,4688,4035,5640,2025-01-27 13:54:54,0.0
17180,-1380,4092,4429,-5071,7126,2025-01-27 13:54:54,0.0
16280,-3076,2800,3962,-12158,6928,2025-01-27 13:54:54,0.0
14316,-4136,2940,3747,-14282,6013,2025-01-27 13:54:54,0.0
15664,-4448,912,3747,-10571,3366,2025-01-27 13:54:54,0.0
12312,-2744,596,2645,-1637,2155,2025-01-27 13:54:54,0.0
11544,-2684,4140,3088,4392,2647,2025-01-27 13:54:54,0.0
13548,-2024,3612,4843,6688,2752,2025-01-27 13:54:54,0.0
15016,-1540,676,5108,6625,2638,2025-01-27 13:54:54,0.0
16840,-1084,-1024,3904,3952,1502,2025-01-27 13:54:55,0.0
17176,-1304,-96,2966,2502,-481,2025-01-27 13:54:55,0.0
16576,-1456,1780,2786,2015,-1757,2025-01-27 13:54:55,0.0
17028,-1044,2564,3423,2982,-2149,2025-01-27 13:54:55,0.0
17968,-836,2236,4605,4742,-2132,2025-01-27 13:54:55,0.0
19260,-1284,1800,5869,5417,-1693,2025-01-27 13:54:55,0.0
20120,-1788,1380,6507,4468,-836,2025-01-27 13:54:55,0.0
21788,-8100,2080,-1289,770,6920,2025-01-27 13:54:55,0.0
25784,-10328,6664,-4057,-3002,6572,2025-01-27 13:54:55,0.0
28332,4300,12208,-1985,-3631,-6703,2025-01-27 13:54:55,0.0
22548,5920,11780,1841,-7024,-7544,2025-01-27 13:54:55,0.0
13920,5404,10588,4143,-11624,-3260,2025-01-27 13:54:55,0.0
10644,1032,11480,7495,-15450,2858,2025-01-27 13:54:55,0.0
13448,-880,7960,8304,-14049,6204,2025-01-27 13:54:55,
