acceleration_x,acceleration_y,acceleration_z,gyroscope_x,gyroscope_y,gyroscope_z,timestamp,label
20572,-4132,-1360,1049,2818,-719,2025-01-27 13:53:42,0.0
19368,-1984,972,629,1936,-1393,2025-01-27 13:53:42,0.0
18192,-3580,-568,811,2439,-1373,2025-01-27 13:53:42,0.0
17480,-3164,364,-37,5109,-1646,2025-01-27 13:53:42,0.0
17760,-1852,1156,1014,10035,-2870,2025-01-27 13:53:42,0.0
15236,-3252,-1596,1059,12876,-1203,2025-01-27 13:53:42,0.0
17860,-3436,764,802,11321,346,2025-01-27 13:53:42,0.0
20488,-2596,4156,817,5840,848,2025-01-27 13:53:42,0.0
19932,-4116,3180,955,459,257,2025-01-27 13:53:42,0.0
19388,-3036,1700,783,-2526,39,2025-01-27 13:53:43,0.0
17908,-4324,188,-108,-2881,397,2025-01-27 13:53:43,0.0
18740,-2336,2188,-280,-3049,404,2025-01-27 13:53:43,0.0
18796,-1552,1276,-222,-3757,564,2025-01-27 13:53:43,0.0
18492,-3348,304,-1033,-2289,601,2025-01-27 13:53:43,0.0
17172,-5068,1500,-1298,-694,468,2025-01-27 13:53:43,0.0
19376,-4408,-216,-1544,145,-80,2025-01-27 13:53:43,0.0
19224,-3020,1568,-1278,-25,10,2025-01-27 13:53:43,0.0
18188,-2900,652,-711,-383,141,2025-01-27 13:53:43,0.0
18516,-1452,572,-1340,1421,-359,2025-01-27 13:53:43,0.0
17184,-2544,2648,-1286,1458,447,2025-01-27 13:53:43,0.0
20684,-1664,-44,-1154,332,262,2025-01-27 13:53:43,0.0
19948,-3672,468,-956,620,266,2025-01-27 13:53:43,0.0
18248,-3104,2048,-1006,345,557,2025-01-27 13:53:43,0.0
19748,-3248,1940,-824,-553,347,2025-01-27 13:53:43,0.0
21424,-2300,1572,-651,-3669,-385,2025-01-27 13:53:43,0.0
22940,-1544,648,-662,-7779,-1528,2025-01-27 13:53:43,0.0
17476,-1900,1700,-341,-10405,-807,2025-01-27 13:53:43,0.0
18812,-2880,-776,-2200,-10628,-1002,2025-01-27 13:53:43,0.0
13980,-704,-268,-1799,-4639,-149,2025-01-27 13:53:43,0.0
14428,824,6228,2790,4591,2461,2025-01-27 13:53:43,0.0
16132,-1132,2104,4906,8748,2710,2025-01-27 13:53:43,0.0
19324,-2184,-1572,3225,9335,1517,2025-01-27 13:53:43,0.0
21340,-3248,-1792,1637,7513,-135,2025-01-27 13:53:43,0.0
20992,-3148,-812,1160,3384,-323,2025-01-27 13:53:43,0.0
21008,-3580,1476,1070,-3358,-24,2025-01-27 13:53:43,0.0
19448,-4124,404,697,-7421,-543,2025-01-27 13:53:43,0.0
18068,-4480,-812,99,-7160,-548,2025-01-27 13:53:43,0.0
17520,-7624,-2948,-4810,-993,-1509,2025-01-27 13:53:43,0.0
14212,-2984,120,-1942,3687,-1590,2025-01-27 13:53:43,0.0
16888,-3576,1256,279,4453,731,2025-01-27 13:53:43,0.0
18164,-5592,-2612,-2204,3747,-550,2025-01-27 13:53:43,0.0
20680,-4188,1256,-2566,-2401,2160,2025-01-27 13:53:43,0.0
21420,-3484,-808,-2160,-6236,2136,2025-01-27 13:53:43,0.0
20184,-3272,-1332,-3254,-6816,1251,2025-01-27 13:53:43,0.0
17764,-2384,244,-3609,-5761,547,2025-01-27 13:53:43,0.0
17600,-2096,884,-3004,-4158,533,2025-01-27 13:53:43,0.0
18368,-3032,-208,-1777,476,-385,2025-01-27 13:53:43,0.0
21288,-4600,64,-1772,553,1060,2025-01-27 13:53:43,0.0
20860,-2780,-780,-2525,-3113,1071,2025-01-27 13:53:43,0.0
20836,-2692,-1772,-3271,-5868,21,2025-01-27 13:53:43,0.0
18528,-3164,-1848,-4569,-5845,-625,2025-01-27 13:53:43,0.0
15980,-1940,-12,-3625,-2374,-495,2025-01-27 13:53:43,0.0
16824,-1988,-1008,-1318,862,-272,2025-01-27 13:53:43,0.0
17008,-2924,-2552,-593,2703,-245,2025-01-27 13:53:43,0.0
19580,-3020,-2708,-753,1542,-459,2025-01-27 13:53:43,0.0
18120,-3704,-904,-1226,834,-545,2025-01-27 13:53:43,0.0
17424,-3380,-500,-836,1341,-715,2025-01-27 13:53:43,0.0
17252,-1396,1672,555,2367,-66,2025-01-27 13:53:43,0.0
16420,-2824,-1464,1274,5294,-182,2025-01-27 13:53:43,0.0
19940,-3072,-1980,940,4838,-270,2025-01-27 13:53:43,0.0
20196,-3460,-1892,177,3001,-540,2025-01-27 13:53:43,0.0
19652,-3044,-192,13,857,-339,2025-01-27 13:53:43,0.0
19400,-3048,-584,-275,-783,-273,2025-01-27 13:53:43,0.0
18392,-2696,-956,-579,-906,-296,2025-01-27 13:53:43,0.0
17648,-2544,-348,-389,108,-301,2025-01-27 13:53:43,0.0
17932,-2516,-796,20,1219,-367,2025-01-27 13:53:43,0.0
18292,-2612,-852,275,1776,-421,2025-01-27 13:53:43,0.0
18704,-2948,-1324,324,2126,-432,2025-01-27 13:53:43,0.0
18764,-2976,-1064,484,2210,-333,2025-01-27 13:53:43,0.0
18904,-3316,-776,688,1721,-188,2025-01-27 13:53:43,0.0
19216,-3340,-980,652,1112,-222,2025-01-27 13:53:44,0.0
19172,-3192,-956,-9,-349,-615,2025-01-27 13:53:44,0.0
18284,-2928,-516,-8,-122,-544,2025-01-27 13:53:44,0.0
17436,-2964,-428,312,1329,-589,2025-01-27 13:53:44,0.0
17460,-3256,-876,444,3075,-470,2025-01-27 13:53:44,0.0
18244,-3428,-716,7,3183,-249,2025-01-27 13:53:44,0.0
19408,-3296,-320,-151,1707,-88,2025-01-27 13:53:44,0.0
19192,-3680,-380,-371,280,-5,2025-01-27 13:53:44,0.0
19248,-3504,-152,-452,-491,278,2025-01-27 13:53:44,0.0
19144,-3400,-588,-1000,-570,157,2025-01-27 13:53:44,0.0
18460,-3440,192,-1605,-211,54,2025-01-27 13:53:44,0.0
18096,-3164,664,-1551,275,77,2025-01-27 13:53:44,0.0
18448,-2940,300,-1552,851,84,2025-01-27 13:53:44,0.0
18436,-2768,412,-1572,1222,27,2025-01-27 13:53:44,0.0
18792,-2764,272,-1530,1252,8,2025-01-27 13:53:44,0.0
18916,-2724,436,-1527,957,39,2025-01-27 13:53:44,0.0
18788,-2696,560,-1520,595,34,2025-01-27 13:53:44,0.0
18636,-2656,132,-1557,694,-45,2025-01-27 13:53:44,0.0
18592,-2604,-12,-1589,1059,-177,2025-01-27 13:53:44,0.0
18760,-2480,-56,-1522,1254,-283,2025-01-27 13:53:44,0.0
19924,-2092,696,-908,1527,-912,2025-01-27 13:53:44,0.0
17828,-1516,-1068,-1089,817,31,2025-01-27 13:53:44,0.0
19648,-1772,32,-782,1092,-366,2025-01-27 13:53:44,0.0
19428,-1348,176,-590,647,-399,2025-01-27 13:53:44,0.0
18784,-1664,544,-96,-255,-332,2025-01-27 13:53:44,0.0
18792,-2208,-364,436,-733,-305,2025-01-27 13:53:44,0.0
18252,-2568,-932,897,-851,-67,2025-01-27 13:53:44,0.0
18632,-2956,-1136,728,-790,-212,2025-01-27 13:53:44,0.0
17176,-3200,616,1193,-782,56,2025-01-27 13:53:44,0.0
16976,-3176,92,1863,321,411,2025-01-27 13:53:44,
17812,-3712,-2788,732,2006,754,2025-01-27 13:53:44,0.0
19652,-3520,-1604,-657,3173,-672,2025-01-27 13:53:44,0.0
19576,-3080,1288,-118,2018,-814,2025-01-27 13:53:44,0.0
19528,-2792,1588,956,-1309,-407,2025-01-27 13:53:44,0.0
19048,-3232,-904,465,-3396,321,2025-01-27 13:53:44,0.0
17716,-3080,-620,85,-2039,19,2025-01-27 13:53:44,0.0
17372,-3020,700,413,-545,-34,2025-01-27 13:53:44,0.0
17908,-2596,1968,659,1215,263,2025-01-27 13:53:44,0.0
15728,-1804,-1952,1455,3320,450,2025-01-27 13:53:44,0.0
20040,-3148,-2600,-852,3522,-299,2025-01-27 13:53:44,0.0
19844,-2332,28,-873,1923,-806,2025-01-27 13:53:44,0.0
19228,-1992,436,244,178,-638,2025-01-27 13:53:44,0.0
18776,-2272,1976,1087,-167,-620,2025-01-27 13:53:44,0.0
18652,-1520,-3880,1164,630,168,2025-01-27 13:53:44,0.0
18012,-4172,-3792,-1914,2373,-686,2025-01-27 13:53:44,0.0
17456,-3768,2416,-1101,3429,30,2025-01-27 13:53:44,0.0
18236,-2916,3368,576,2615,941,2025-01-27 13:53:44,0.0
17636,-4112,100,502,1710,773,2025-01-27 13:53:44,0.0
19636,-3740,-1140,-555,1557,-402,2025-01-27 13:53:44,0.0
18156,-3076,412,-469,696,-943,2025-01-27 13:53:44,0.0
20156,-1760,928,171,189,-1333,2025-01-27 13:53:44,0.0
19564,-2772,1756,156,-134,-618,2025-01-27 13:53:44,0.0
19536,-3576,976,1057,-409,-1003,2025-01-27 13:53:44,0.0
18880,-2948,-352,998,-616,-59,2025-01-27 13:53:44,0.0
19064,-2900,-376,814,359,-43,2025-01-27 13:53:44,0.0
18252,-3068,620,1441,-39,6,2025-01-27 13:53:44,0.0
17876,-3100,-264,2159,-950,287,2025-01-27 13:53:44,0.0
17480,-3800,-1592,2208,269,365,2025-01-27 13:53:44,0.0
16964,-3660,-1964,1715,1512,142,2025-01-27 13:53:44,0.0
16632,-3444,-536,1902,3111,-92,2025-01-27 13:53:44,0.0
18756,-3528,-1424,1357,3388,-137,2025-01-27 13:53:44,0.0
18688,-2912,-896,1507,1879,-497,2025-01-27 13:53:44,0.0
18488,-2780,-1360,2487,1022,-380,2025-01-27 13:53:45,0.0
18560,-2880,-2500,1853,893,-659,2025-01-27 13:53:45,0.0
17744,-2500,-1532,1547,952,-970,2025-01-27 13:53:45,0.0
18808,-2400,-1304,1275,359,-1543,2025-01-27 13:53:45,0.0
17600,-2288,-4548,188,-2072,-3252,2025-01-27 13:53:45,0.0
15696,-3544,-1724,357,-1561,-1227,2025-01-27 13:53:45,0.0
17160,-3156,-260,1525,1277,-1061,2025-01-27 13:53:45,0.0
18900,-2992,-1380,1407,1920,-1748,2025-01-27 13:53:45,0.0
20244,-3092,-1680,1096,-448,-3169,2025-01-27 13:53:45,0.0
9776,-532,-760,2291,-1512,-1562,2025-01-27 13:53:45,0.0
20028,-3596,-2860,2429,-2933,-1753,2025-01-27 13:53:45,0.0
17528,-3572,-2536,2456,-2932,-2187,2025-01-27 13:53:45,0.0
18892,-4504,-2884,2012,-2261,-2759,2025-01-27 13:53:45,0.0
17520,-3508,-4496,1276,-2099,-3577,2025-01-27 13:53:45,0.0
19128,-4012,-3900,605,-128,-4568,2025-01-27 13:53:45,0.0
17120,-1972,-588,535,1560,-5050,2025-01-27 13:53:45,0.0
13148,-2012,2684,3363,730,-920,2025-01-27 13:53:45,0.0
17140,-2880,-908,5195,152,607,2025-01-27 13:53:45,0.0
17428,-3820,-1340,4836,1111,1620,2025-01-27 13:53:45,0.0
24052,-4084,-3704,4323,1080,94,2025-01-27 13:53:45,0.0
20868,-5528,-1760,3956,-836,399,2025-01-27 13:53:45,0.0
20272,-6472,-3420,3888,-1592,1444,2025-01-27 13:53:45,0.0
23944,-7648,-5548,1732,-127,1313,2025-01-27 13:53:45,0.0
23400,-5956,-168,2020,1181,1129,2025-01-27 13:53:45,0.0
23060,-7096,-1208,2329,3493,1483,2025-01-27 13:53:45,0.0
20136,-6764,-620,2979,2277,1510,2025-01-27 13:53:45,0.0
20376,-6484,-1060,2925,157,1038,2025-01-27 13:53:45,0.0
20936,-4616,-1056,2710,644,1123,2025-01-27 13:53:45,0.0
20044,-3464,-1024,1839,1322,1279,2025-01-27 13:53:45,0.0
19820,-2640,-444,-428,-538,457,2025-01-27 13:53:45,0.0
19432,-600,2424,-1785,-3430,-909,2025-01-27 13:53:45,0.0
19104,-1192,2124,-3494,-4733,-1671,2025-01-27 13:53:45,0.0
20788,252,1972,-5225,-3351,-1788,2025-01-27 13:53:45,0.0
20292,-1248,628,-5989,275,-2670,2025-01-27 13:53:45,0.0
16280,-252,988,-4647,3054,-5292,2025-01-27 13:53:45,0.0
20148,-1516,1436,-6049,4314,-2287,2025-01-27 13:53:45,0.0
20152,-2092,3832,-4111,5236,-4332,2025-01-27 13:53:45,0.0
18464,-4080,3696,-3909,5649,-5180,2025-01-27 13:53:45,0.0
19328,-1552,1224,-4088,6053,-6267,2025-01-27 13:53:45,0.0
18128,-60,36,-4085,4190,-6263,2025-01-27 13:53:45,0.0
16400,-560,2552,-4064,683,-5829,2025-01-27 13:53:45,0.0
17044,948,1396,-3959,-3998,-5115,2025-01-27 13:53:45,0.0
14392,1484,2004,-3687,-3534,-4491,2025-01-27 13:53:45,0.0
15364,-160,116,-4287,-2294,-4330,2025-01-27 13:53:45,0.0
15884,188,836,-5067,-2679,-4492,2025-01-27 13:53:45,0.0
15788,-700,-56,-5512,-4218,-4027,2025-01-27 13:53:45,0.0
14908,480,-352,-5901,-3823,-2958,2025-01-27 13:53:45,0.0
13900,2816,2248,-5021,-3633,-1838,2025-01-27 13:53:45,0.0
13656,660,668,-4198,-374,-420,2025-01-27 13:53:45,0.0
15328,728,648,-4287,1072,288,2025-01-27 13:53:45,0.0
15660,932,308,-4329,173,558,2025-01-27 13:53:45,0.0
15712,312,-580,-5002,1606,399,2025-01-27 13:53:45,0.0
15704,88,-1168,-5116,2946,-169,2025-01-27 13:53:45,0.0
15800,752,-496,-4920,3693,-554,2025-01-27 13:53:45,0.0
17032,1024,-644,-4223,3094,-468,2025-01-27 13:53:45,0.0
18088,168,-2636,-3486,3521,-93,2025-01-27 13:53:45,0.0
17980,468,732,-4911,3201,-313,2025-01-27 13:53:45,0.0
18236,-752,-804,-4529,2297,-1044,2025-01-27 13:53:45,0.0
18836,1884,1316,-4048,-544,-728,2025-01-27 13:53:45,0.0
20840,1452,-112,-4581,-576,-1605,2025-01-27 13:53:45,0.0
23692,2504,-16,-4251,-109,-2136,2025-01-27 13:53:45,0.0
25020,1720,-3248,-3713,1777,-3099,2025-01-27 13:53:46,0.0
21900,1752,-2680,-4433,3800,-3867,2025-01-27 13:53:46,0.0
23776,2472,432,-5573,2695,-4307,2025-01-27 13:53:46,0.0
25940,1400,-3300,-5358,1928,-4670,2025-01-27 13:53:46,0.0
23300,4568,2728,-2967,2351,-3925,2025-01-27 13:53:46,0.0
26796,1776,-2232,-4615,4477,-5169,2025-01-27 13:53:46,0.0
21388,6148,10984,-3232,1110,-4334,2025-01-27 13:53:46,
23696,5132,3600,-2837,-1050,-2919,2025-01-27 13:53:46,0.0
17368,5440,10936,-1631,-2687,-644,2025-01-27 13:53:46,0.0
15992,2708,9284,1608,-6905,1629,2025-01-27 13:53:46,0.0
16720,732,4692,2934,-9378,2004,2025-01-27 13:53:46,0.0
17268,-508,2024,3615,-6811,1783,2025-01-27 13:53:46,0.0
17192,-400,3236,4498,-2404,2497,2025-01-27 13:53:46,0.0
18020,-28,4212,4752,1636,3257,2025-01-27 13:53:46,0.0
17340,1456,2904,4217,4943,4061,2025-01-27 13:53:46,0.0
18472,1616,1132,2629,7272,4665,2025-01-27 13:53:46,0.0
18784,176,1464,1253,7934,4707,2025-01-27 13:53:46,0.0
18444,-964,3264,1073,7389,5130,2025-01-27 13:53:46,0.0
16480,-912,2924,721,4026,5971,2025-01-27 13:53:46,0.0
16376,-1712,4144,-607,-2174,7124,2025-01-27 13:53:46,0.0
16444,-1736,3212,2326,-3309,4905,2025-01-27 13:53:46,0.0
13988,-572,2416,3716,-825,3654,2025-01-27 13:53:46,0.0
13704,-512,3052,4213,2521,3156,2025-01-27 13:53:46,0.0
14720,-1420,2616,5286,3968,3365,2025-01-27 13:53:46,0.0
15992,-1676,1364,5852,4623,3462,2025-01-27 13:53:46,0.0
16112,-1552,996,5388,4237,3102,2025-01-27 13:53:46,0.0
16464,-1672,824,4772,3525,2293,2025-01-27 13:53:46,0.0
16068,-1620,1020,4573,2917,1523,2025-01-27 13:53:46,0.0
16004,-2236,548,4413,2884,826,2025-01-27 13:53:46,0.0
16368,-2732,468,3851,3148,24,2025-01-27 13:53:46,0.0
16076,-2852,1196,3254,3218,-438,2025-01-27 13:53:46,0.0
16076,-2332,1548,2800,2844,-505,2025-01-27 13:53:46,0.0
16192,-1884,2504,2350,2938,-528,2025-01-27 13:53:46,0.0
17948,-784,3184,2770,3651,-715,2025-01-27 13:53:46,0.0
19428,-800,1616,3080,4641,-741,2025-01-27 13:53:46,0.0
20568,-1972,460,3325,5404,4,2025-01-27 13:53:46,0.0
20428,-3104,516,3604,4201,1840,2025-01-27 13:53:46,0.0
22100,-3632,472,3450,2477,4319,2025-01-27 13:53:46,0.0
22908,-4792,176,2595,-81,6622,2025-01-27 13:53:46,0.0
24256,-6820,-92,2097,-1846,7726,2025-01-27 13:53:46,0.0
26664,-7320,1764,1997,-1430,6861,2025-01-27 13:53:46,0.0
28948,-5156,2624,1225,2824,5723,2025-01-27 13:53:46,0.0
27844,-3992,3896,750,4448,5489,2025-01-27 13:53:46,0.0
26104,-4592,3980,774,1076,6179,2025-01-27 13:53:46,0.0
26708,-6008,4308,150,-3848,5821,2025-01-27 13:53:46,0.0
27576,-6784,4900,-1068,-7274,2505,2025-01-27 13:53:46,0.0
24892,-5832,5768,-2816,-9402,-1355,2025-01-27 13:53:46,0.0
20592,-3000,7856,-4211,-11856,-4559,2025-01-27 13:53:46,0.0
15416,-484,8248,-4389,-12634,-6381,2025-01-27 13:53:46,0.0
12604,2576,7056,-4803,-9845,-5520,2025-01-27 13:53:46,0.0
13928,3500,5228,-4170,-2176,-4216,2025-01-27 13:53:46,0.0
15164,372,4508,-1820,6875,-3882,2025-01-27 13:53:46,0.0
16620,-3252,2416,-1106,10705,-3694,2025-01-27 13:53:46,0.0
18864,-5592,1616,-2836,10874,-3946,2025-01-27 13:53:46,0.0
20112,-5288,3020,-4749,8185,-4906,2025-01-27 13:53:46,0.0
18880,-2968,4252,-5573,4433,-5614,2025-01-27 13:53:46,0.0
17336,-1116,4392,-5670,1114,-5778,2025-01-27 13:53:46,0.0
15688,392,4912,-5701,-1791,-5423,2025-01-27 13:53:46,0.0
14556,2100,4224,-5769,-4815,-4839,2025-01-27 13:53:46,0.0
14632,3504,3368,-5898,-6499,-4400,2025-01-27 13:53:46,0.0
14120,3768,2836,-5714,-5261,-4184,2025-01-27 13:53:46,0.0
13684,2616,2236,-5253,-2127,-3728,2025-01-27 13:53:47,0.0
14040,596,2888,-4537,217,-3022,2025-01-27 13:53:47,0.0
14864,-236,2804,-4149,904,-2475,2025-01-27 13:53:47,0.0
14672,-712,2504,-3672,372,-2120,2025-01-27 13:53:47,0.0
12908,-856,1164,-3430,-1446,-709,2025-01-27 13:53:47,0.0
13520,-1196,1128,-3464,-2170,803,2025-01-27 13:53:47,0.0
14484,-1604,224,-3737,-656,1275,2025-01-27 13:53:47,0.0
14884,-2140,-1100,-4806,2841,2161,2025-01-27 13:53:47,0.0
17436,-1156,-1868,-5657,4372,3022,2025-01-27 13:53:47,0.0
19840,484,-1640,-6242,4146,3147,2025-01-27 13:53:47,0.0
22864,1116,-304,-6661,3379,2508,2025-01-27 13:53:47,0.0
26252,588,1672,-6735,2957,339,2025-01-27 13:53:47,0.0
28236,164,1204,-6504,2588,-2339,2025-01-27 13:53:47,0.0
30600,-204,504,-5188,3209,-7020,2025-01-27 13:53:47,0.0
26520,388,-2756,-4050,2304,-9882,2025-01-27 13:53:47,0.0
21208,844,-3276,-4533,-274,-8434,2025-01-27 13:53:47,0.0
19488,-1080,800,-6145,-1016,-4310,2025-01-27 13:53:47,0.0
22776,-724,3200,-6997,879,-1109,2025-01-27 13:53:47,0.0
25656,2784,8440,-6639,1098,-2071,2025-01-27 13:53:47,0.0
26036,4916,13832,-4434,-641,-4830,2025-01-27 13:53:47,0.0
20720,5524,15604,-294,-5022,-5937,2025-01-27 13:53:47,0.0
15468,3688,12136,3352,-9574,-3061,2025-01-27 13:53:47,0.0
16568,324,9496,5906,-9944,-1012,2025-01-27 13:53:47,0.0
16540,-2300,4924,4599,-7285,-30,2025-01-27 13:53:47,0.0
15764,-5076,3792,1471,-4268,1417,2025-01-27 13:53:47,0.0
15528,-6212,4652,-71,-1333,2808,2025-01-27 13:53:47,0.0
16128,-4652,5268,-308,2341,4358,2025-01-27 13:53:47,0.0
17784,-1212,5000,-172,6698,5708,2025-01-27 13:53:47,0.0
19660,-1620,3156,5784,1626,-1549,2025-01-27 13:53:47,0.0
20196,-1928,2532,6598,4078,-258,2025-01-27 13:53:47,0.0
20804,-3444,-392,6067,5403,1686,2025-01-27 13:53:47,0.0
21380,-5460,-2436,5172,4985,3988,2025-01-27 13:53:47,0.0
24740,-6652,-3684,4886,3263,5803,2025-01-27 13:53:47,0.0
27440,-5352,-2628,4496,2929,5299,2025-01-27 13:53:47,0.0
28384,-4140,3612,3687,5581,4491,2025-01-27 13:53:47,0.0
26820,-2684,6264,3771,5435,4960,2025-01-27 13:53:47,0.0
23848,-6656,4788,2139,50,6586,2025-01-27 13:53:47,0.0
24924,-9940,5148,-497,-6397,7443,2025-01-27 13:53:47,0.0
29288,-8932,5600,-2579,-11139,2846,2025-01-27 13:53:47,0.0
22016,-3468,7040,-6413,-14214,-2601,2025-01-27 13:53:47,0.0
16252,-1020,10632,-7542,-15462,-1826,2025-01-27 13:53:47,0.0
15476,920,10928,-5485,-12036,-497,2025-01-27 13:53:47,0.0
16280,2160,8720,-2726,-3500,-322,2025-01-27 13:53:47,0.0
16976,1716,5216,-705,5048,-1107,2025-01-27 13:53:47,0.0
19472,-768,2212,-27,9522,-3066,2025-01-27 13:53:48,0.0
20316,-3564,1104,-892,9292,-5142,2025-01-27 13:53:48,
19308,-5596,1856,-2537,5898,-5397,2025-01-27 13:53:48,0.0
18888,-4536,2804,-3755,1342,-4494,2025-01-27 13:53:48,0.0
17912,-2348,3448,-4192,-2340,-4609,2025-01-27 13:53:48,0.0
15916,-828,3668,-4240,-5123,-5081,2025-01-27 13:53:48,0.0
13284,812,3692,-4834,-7663,-5275,2025-01-27 13:53:48,0.0
13008,1664,3156,-4951,-8541,-5427,2025-01-27 13:53:48,0.0
13420,1728,1748,-4284,-4492,-5212,2025-01-27 13:53:48,0.0
13612,1580,628,-3595,-203,-4065,2025-01-27 13:53:48,0.0
15016,1176,888,-3293,1301,-3275,2025-01-27 13:53:48,0.0
15604,120,1040,-2760,445,-3001,2025-01-27 13:53:48,0.0
14808,-200,456,-1762,-678,-2486,2025-01-27 13:53:48,0.0
13204,620,-392,-1069,-1447,-1340,2025-01-27 13:53:48,0.0
11992,756,1036,-1006,-1544,-398,2025-01-27 13:53:48,0.0
12732,-196,1068,-1200,223,137,2025-01-27 13:53:48,0.0
13964,-1612,-784,-2031,3786,352,2025-01-27 13:53:48,0.0
15916,-2804,-1232,-3357,6763,764,2025-01-27 13:53:48,0.0
18128,-2764,-1024,-4216,7620,1162,2025-01-27 13:53:48,0.0
21348,-1540,-1212,-5169,7083,1388,2025-01-27 13:53:48,0.0
26220,-928,-1496,-6472,6453,-172,2025-01-27 13:53:48,0.0
30940,-792,780,-6846,7959,-4521,2025-01-27 13:53:48,0.0
28064,304,1880,-5000,7224,-7824,2025-01-27 13:53:48,0.0
21920,2284,-1220,-5161,771,-7572,2025-01-27 13:53:48,0.0
19376,2756,-1544,-5847,-5609,-5257,2025-01-27 13:53:48,0.0
21904,1012,300,-5900,-5314,-3676,2025-01-27 13:53:48,0.0
25476,1664,3588,-4974,763,-2590,2025-01-27 13:53:48,0.0
29520,2996,8628,-3019,5007,-5081,2025-01-27 13:53:48,0.0
29592,4960,11904,490,5713,-8633,2025-01-27 13:53:48,0.0
22252,5932,10768,3384,-1518,-9284,2025-01-27 13:53:48,0.0
13852,3700,10128,4476,-12404,-4724,2025-01-27 13:53:48,0.0
10916,-1700,8996,6032,-19452,1289,2025-01-27 13:53:48,0.0
13216,-4272,5400,5221,-18547,5359,2025-01-27 13:53:48,0.0
16592,-6512,3436,1567,-10095,5738,2025-01-27 13:53:48,0.0
18080,-7136,2584,-13,1994,3997,2025-01-27 13:53:48,0.0
16692,-2256,3272,-583,12350,3793,2025-01-27 13:53:48,0.0
18224,2372,4552,-8,16838,5245,2025-01-27 13:53:48,0.0
20976,5468,4024,1276,17629,5613,2025-01-27 13:53:48,0.0
21904,4680,4972,3253,13598,4989,2025-01-27 13:53:48,0.0
19188,1352,6340,5234,6222,5591,2025-01-27 13:53:49,0.0
18468,-1372,4964,5428,-2655,6725,2025-01-27 13:53:49,0.0
17264,-3152,5324,4885,-10033,6439,2025-01-27 13:53:49,0.0
15176,-3800,4592,4535,-14756,5487,2025-01-27 13:53:49,0.0
24568,-7392,-3760,3672,1563,6982,2025-01-27 13:53:49,0.0
27380,-6896,-1340,3087,731,7459,2025-01-27 13:53:49,0.0
29136,-5168,3168,1465,1904,6883,2025-01-27 13:53:49,0.0
28004,-5220,4864,710,-475,5241,2025-01-27 13:53:49,0.0
23916,-8124,3104,-640,-6374,4175,2025-01-27 13:53:49,0.0
23564,-8820,3324,-2342,-10239,3992,2025-01-27 13:53:49,0.0
23128,-7004,3536,-3817,-11873,2347,2025-01-27 13:53:49,0.0
20844,-4984,6208,-5747,-13265,983,2025-01-27 13:53:49,0.0
18912,-2672,9312,-6325,-14261,6,2025-01-27 13:53:49,0.0
17832,1168,9260,-5659,-10638,-1544,2025-01-27 13:53:49,0.0
15468,3984,8556,-5242,-5515,-1885,2025-01-27 13:53:49,0.0
16312,5164,7648,-4049,760,-2003,2025-01-27 13:53:49,0.0
19216,1244,5844,-1426,9163,-2823,2025-01-27 13:53:49,0.0
21284,-2668,3176,-82,14753,-4109,2025-01-27 13:53:49,0.0
22200,-6236,444,-1084,15395,-5112,2025-01-27 13:53:49,0.0
22108,-5948,1120,-3455,9741,-5342,2025-01-27 13:53:49,0.0
21520,-3948,3336,-4916,1681,-6360,2025-01-27 13:53:49,0.0
17480,-1940,4376,-5637,-5105,-6775,2025-01-27 13:53:49,0.0
13664,-164,3552,-6093,-11138,-5695,2025-01-27 13:53:49,0.0
11788,1288,3288,-6619,-13335,-4368,2025-01-27 13:53:49,0.0
11344,2212,2744,-6634,-11230,-4366,2025-01-27 13:53:49,0.0
10608,2404,2200,-6426,-4039,-5048,2025-01-27 13:53:49,0.0
9680,1052,2956,-6106,2971,-4533,2025-01-27 13:53:49,0.0
10672,-52,3040,-5058,7625,-3062,2025-01-27 13:53:49,0.0
13276,-128,1552,-3877,9329,-1921,2025-01-27 13:53:52,0.0
16336,136,732,-3174,7788,-1544,2025-01-27 13:53:52,0.0
15772,464,1804,-2567,4566,-726,2025-01-27 13:53:52,0.0
14684,856,2376,-1855,1246,1080,2025-01-27 13:53:52,0.0
15216,428,1112,-988,-120,2500,2025-01-27 13:53:52,0.0
14780,-256,-924,-946,749,3083,2025-01-27 13:53:52,0.0
16156,-1452,-1300,-2008,2597,3250,2025-01-27 13:53:52,0.0
21180,4956,4800,5153,13198,6641,2025-01-27 13:53:52,0.0
20684,2496,5064,6717,5843,7318,2025-01-27 13:53:52,0.0
18004,-28,5280,4661,1093,8305,2025-01-27 13:53:52,0.0
17412,-1124,4504,3955,-5235,8303,2025-01-27 13:53:52,0.0
16852,-1660,4140,2857,-10423,6343,2025-01-27 13:53:52,0.0
14648,-2352,4096,3035,-11244,4493,2025-01-27 13:53:52,0.0
12464,-3236,3784,3544,-8817,3177,2025-01-27 13:53:52,0.0
12348,-3144,1588,3679,-1521,1968,2025-01-27 13:53:52,0.0
12368,-2876,2884,3624,4605,1883,2025-01-27 13:53:52,0.0
13476,-2192,3836,4335,8034,1969,2025-01-27 13:53:52,0.0
15096,-1764,1948,4487,8507,2020,2025-01-27 13:53:52,0.0
17652,-3168,524,1996,67,-582,2025-01-27 13:53:52,0.0
17056,-2284,-176,1701,-1885,-678,2025-01-27 13:53:52,0.0
17320,-1232,804,1748,-2583,-951,2025-01-27 13:53:52,0.0
19616,-1260,3748,6247,4350,-417,2025-01-27 13:53:52,0.0
23036,-9376,4020,-1929,-3715,3216,2025-01-27 13:53:52,0.0
24848,-9472,7436,-3643,-5979,1815,2025-01-27 13:53:52,0.0
21596,-5132,6376,-5777,-8021,-38,2025-01-27 13:53:52,0.0
18604,-2972,9336,-7554,-10535,268,2025-01-27 13:53:52,0.0
17532,-216,10572,-6890,-11818,31,2025-01-27 13:53:52,0.0
17548,2928,9516,-5182,-7988,-1166,2025-01-27 13:53:52,0.0
18400,4572,6756,-3402,447,-2835,2025-01-27 13:53:52,0.0
18748,2764,5932,-2241,6807,-4007,2025-01-27 13:53:52,0.0
20412,-1720,4364,-1220,11003,-5523,2025-01-27 13:53:52,0.0
19620,-5044,3108,-1403,11233,-6041,2025-01-27 13:53:52,0.0
19000,-5720,2668,-2555,7861,-5131,2025-01-27 13:53:52,0.0
18852,-3908,3452,-3742,2642,-5071,2025-01-27 13:53:52,0.0
17608,-2392,3344,-4713,-1256,-6054,2025-01-27 13:53:52,
14396,-1020,3940,-5337,-4833,-6220,2025-01-27 13:53:52,0.0
12548,156,3848,-5743,-7715,-5587,2025-01-27 13:53:52,0.0
11696,1232,3228,-5850,-8503,-4823,2025-01-27 13:53:52,0.0
11796,1684,2228,-5796,-5253,-4595,2025-01-27 13:53:52,0.0
12064,1468,1396,-5851,646,-4100,2025-01-27 13:53:52,0.0
12628,724,2224,-5711,4541,-3293,2025-01-27 13:53:52,0.0
14512,-88,2544,-4987,5974,-2838,2025-01-27 13:53:53,0.0
15708,-192,1740,-4116,5110,-2161,2025-01-27 13:53:53,0.0
15380,208,1428,-2983,2796,-541,2025-01-27 13:53:53,0.0
15268,524,1260,-1959,452,1498,2025-01-27 13:53:53,0.0
15748,264,-132,-1439,-1111,2745,2025-01-27 13:53:53,0.0
16504,-420,-2396,-1854,-1450,3352,2025-01-27 13:53:53,0.0
16644,-812,-2056,-2698,-1147,3638,2025-01-27 13:53:53,0.0
17652,-624,-344,-3649,-519,3356,2025-01-27 13:53:53,0.0
19556,-80,76,-4521,200,2635,2025-01-27 13:53:53,0.0
16504,-3900,1612,2091,1489,1463,2025-01-27 13:53:53,0.0
16340,-4404,5296,224,9313,1526,2025-01-27 13:53:53,0.0
17088,-2256,6588,1320,12259,3085,2025-01-27 13:53:53,0.0
19440,824,6984,3321,11835,4859,2025-01-27 13:53:53,0.0
21020,3672,7396,5124,9040,5887,2025-01-27 13:53:53,0.0
20412,3272,7096,6572,3771,6170,2025-01-27 13:53:53,0.0
17844,284,5508,7354,-1948,6853,2025-01-27 13:53:53,0.0
15796,-1616,5228,7179,-6708,7169,2025-01-27 13:53:53,0.0
15080,-2348,4632,6266,-10054,6579,2025-01-27 13:53:53,0.0
14292,-3680,3904,5421,-11408,5320,2025-01-27 13:53:53,0.0
14716,-4652,2204,5100,-6732,2789,2025-01-27 13:53:53,0.0
15964,-1596,1564,5925,5967,3443,2025-01-27 13:53:53,0.0
17200,-1736,324,4800,3040,2513,2025-01-27 13:53:53,0.0
17856,-1908,-104,3526,1072,858,2025-01-27 13:53:53,0.0
16868,-1904,148,2498,431,-831,2025-01-27 13:53:53,0.0
15432,-1864,728,2346,742,-1536,2025-01-27 13:53:53,0.0
15772,-1724,888,2630,1743,-1806,2025-01-27 13:53:53,0.0
17812,-1112,1332,3046,2972,-2070,2025-01-27 13:53:53,0.0
19280,-1556,2180,3987,3463,-2229,2025-01-27 13:53:53,0.0
19532,-1984,3244,4605,3280,-1575,2025-01-27 13:53:53,0.0
20656,-1788,3224,4737,2649,-363,2025-01-27 13:53:53,0.0
22772,-1128,492,4224,1902,447,2025-01-27 13:53:53,0.0
22900,-2396,-2448,3224,1856,1740,2025-01-27 13:53:53,0.0
22956,-5516,-2748,2491,1569,4970,2025-01-27 13:53:53,0.0
24628,-5816,-684,3014,-1020,5239,2025-01-27 13:53:53,0.0
26252,-4000,772,2879,-752,3253,2025-01-27 13:53:53,0.0
25728,-496,4376,2382,1897,3683,2025-01-27 13:53:53,0.0
24320,-2428,4252,3143,2744,5655,2025-01-27 13:53:53,0.0
22608,-6304,3648,245,-1698,8418,2025-01-27 13:53:53,0.0
25356,-9304,7172,-1607,-9306,7830,2025-01-27 13:53:53,0.0
27340,-8236,7552,-1856,-14150,2264,2025-01-27 13:53:53,0.0
20828,-3044,6740,-5032,-16281,-2465,2025-01-27 13:53:53,0.0
16272,-132,9752,-6133,-14751,-3571,2025-01-27 13:53:53,0.0
12832,3504,10888,-4305,-10043,-2483,2025-01-27 13:53:53,0.0
14136,5020,8496,-1413,-2981,-1390,2025-01-27 13:53:53,0.0
17504,2160,6220,1000,7619,-2256,2025-01-27 13:53:56,0.0
20108,-2336,3028,1314,15231,-3763,2025-01-27 13:53:56,0.0
20180,-6460,1264,-393,17378,-4426,2025-01-27 13:53:56,0.0
20716,-8484,2424,-2528,13354,-4440,2025-01-27 13:53:56,0.0
21416,-5792,2700,-4125,7094,-5351,2025-01-27 13:53:56,0.0
19808,-2988,2708,-4918,1151,-6390,2025-01-27 13:53:56,0.0
16852,-896,1900,-5718,-3848,-5938,2025-01-27 13:53:56,0.0
24000,788,3544,-6840,2559,-5482,2025-01-27 13:53:56,0.0
26540,1524,8644,-5083,5957,-6324,2025-01-27 13:53:56,0.0
18412,8052,8136,6383,-6604,-4605,2025-01-27 13:53:56,0.0
17404,2504,8856,8691,-7246,-2252,2025-01-27 13:53:56,0.0
15252,-1736,8916,8919,-8125,-566,2025-01-27 13:53:56,0.0
14540,-4328,8456,6587,-8232,1324,2025-01-27 13:53:56,0.0
15264,-5504,8484,4363,-5830,2589,2025-01-27 13:53:56,0.0
16396,-5308,5728,3749,-35,3084,2025-01-27 13:53:56,0.0
16468,-2232,3868,3375,7383,4136,2025-01-27 13:53:56,0.0
15984,1632,5132,3635,11344,5619,2025-01-27 13:53:56,0.0
18408,3424,5364,4559,12131,6664,2025-01-27 13:53:56,0.0
18660,2040,3888,5032,7860,6404,2025-01-27 13:53:56,0.0
16900,-904,4496,4987,323,6104,2025-01-27 13:53:56,0.0
16948,-2236,3320,4813,-5018,5605,2025-01-27 13:53:56,0.0
14916,-3184,4356,4592,-7477,4962,2025-01-27 13:53:56,0.0
14320,-3836,4296,4930,-6135,4511,2025-01-27 13:53:56,0.0
14292,-3744,3556,5193,-1585,3780,2025-01-27 13:53:56,0.0
13624,-3456,2884,5219,2944,3056,2025-01-27 13:53:56,0.0
14572,-2828,2120,4611,6041,2506,2025-01-27 13:53:57,0.0
15516,-2032,1860,3815,6709,2250,2025-01-27 13:53:57,0.0
17428,-2020,904,3055,4736,1427,2025-01-27 13:53:57,0.0
18028,-2084,40,2182,3390,526,2025-01-27 13:53:57,0.0
16868,-2316,456,1158,2196,-486,2025-01-27 13:53:57,0.0
16364,-2188,1152,705,1739,-1348,2025-01-27 13:53:57,0.0
16104,-1608,1940,941,2434,-1554,2025-01-27 13:53:57,0.0
17028,-944,2756,1934,3627,-1385,2025-01-27 13:53:57,0.0
18396,-772,3468,3344,4613,-1338,2025-01-27 13:53:57,0.0
19524,-1064,3708,4431,4978,-1107,2025-01-27 13:53:57,0.0
20908,-636,4396,5059,4981,340,2025-01-27 13:53:57,0.0
21616,-1160,3876,5016,4153,1846,2025-01-27 13:53:57,0.0
21104,-3844,2024,4649,1895,4035,2025-01-27 13:53:57,0.0
22880,-6820,-308,4594,801,6572,2025-01-27 13:53:57,0.0
25072,-7152,-1408,4223,-1013,7744,2025-01-27 13:53:57,0.0
28680,-4760,1872,3313,-122,4748,2025-01-27 13:53:57,0.0
26524,-2332,6676,2814,1270,3143,2025-01-27 13:53:57,0.0
22644,-4788,3216,2823,-1854,3687,2025-01-27 13:53:57,0.0
21696,-8556,3348,-743,-4694,4940,2025-01-27 13:53:57,0.0
25068,-9372,6620,-2359,-5020,4864,2025-01-27 13:53:57,0.0
28040,-7668,9384,-3214,-6112,1147,2025-01-27 13:53:57,0.0
22472,-3788,10112,-6010,-8716,-1278,2025-01-27 13:53:57,0.0
17516,-756,11920,-7696,-13270,-528,2025-01-27 13:53:57,0.0
15424,1548,10940,-7005,-15005,-32,2025-01-27 13:53:57,0.0
16956,3472,8284,-4825,-10608,-1253,2025-01-27 13:53:57,
18424,4120,5796,-2568,-1473,-3942,2025-01-27 13:53:57,0.0
18764,1116,7164,-996,8777,-6177,2025-01-27 13:53:57,0.0
19480,-2440,6188,-757,13618,-7351,2025-01-27 13:53:57,0.0
17208,-5400,5824,-873,13157,-6463,2025-01-27 13:53:57,0.0
18640,-4644,2992,-1716,7054,-4300,2025-01-27 13:53:57,0.0
19028,-2432,2124,-2478,1236,-4132,2025-01-27 13:53:57,0.0
17332,-788,2328,-3632,-3718,-4553,2025-01-27 13:53:57,0.0
14984,-248,4180,-4175,-7315,-4595,2025-01-27 13:53:57,0.0
13232,268,4624,-4408,-8842,-4361,2025-01-27 13:53:57,0.0
12484,784,3732,-4707,-7344,-4002,2025-01-27 13:53:57,0.0
12568,760,3068,-4555,-3767,-3504,2025-01-27 13:53:57,0.0
13212,360,2724,-4136,99,-3209,2025-01-27 13:53:57,0.0
12440,-652,3792,-3796,2585,-2786,2025-01-27 13:53:57,0.0
13628,-1428,3192,-3549,3013,-1992,2025-01-27 13:53:57,0.0
14540,-776,1788,-3007,2114,-1117,2025-01-27 13:53:57,0.0
14000,392,1724,-2264,-433,680,2025-01-27 13:53:57,0.0
13736,140,2072,-1438,-1103,1985,2025-01-27 13:53:57,0.0
14460,-924,348,-884,-535,2922,2025-01-27 13:53:57,0.0
15332,-1728,-1000,-1367,757,3605,2025-01-27 13:53:57,0.0
17424,-2016,-520,-2880,1641,3756,2025-01-27 13:53:57,0.0
19552,-1952,612,-4388,1722,3259,2025-01-27 13:53:58,0.0
20900,-1560,1080,-5456,835,2516,2025-01-27 13:53:58,0.0
22172,-1396,1400,-6287,-96,1375,2025-01-27 13:53:58,0.0
16044,-2276,6692,7749,-11200,-737,2025-01-27 13:53:58,0.0
14348,-5940,5048,3697,-6675,-93,2025-01-27 13:53:58,0.0
14768,-6268,4320,2667,2266,1683,2025-01-27 13:53:58,0.0
15940,-2448,3760,2567,9695,3524,2025-01-27 13:53:58,0.0
17332,1228,4632,2910,12907,5372,2025-01-27 13:53:58,0.0
19384,3628,4520,3890,12088,6363,2025-01-27 13:53:58,0.0
14624,1876,2776,-6658,-3,-3378,2025-01-27 13:53:58,0.0
14896,596,3412,-5849,2375,-2697,2025-01-27 13:53:58,0.0
15476,24,3020,-4798,2611,-1685,2025-01-27 13:53:58,0.0
15984,364,1620,-3734,1522,-633,2025-01-27 13:53:58,0.0
15172,752,1040,-2893,-763,945,2025-01-27 13:53:58,0.0
15072,336,552,-2224,-3098,2269,2025-01-27 13:53:58,0.0
14124,-588,608,-1830,-4024,3026,2025-01-27 13:53:58,0.0
13776,-1600,-252,-1879,-2918,3641,2025-01-27 13:53:58,0.0
14520,-1912,-188,-2181,-444,3760,2025-01-27 13:53:58,0.0
16388,-864,1148,-2387,2603,3410,2025-01-27 13:53:58,0.0
19056,-32,1596,-2979,4917,2833,2025-01-27 13:53:58,0.0
22432,-232,748,-3398,5993,1594,2025-01-27 13:53:58,0.0
26908,-1856,596,-3968,6876,-650,2025-01-27 13:53:59,0.0
28928,-4488,2388,-3367,8158,-3964,2025-01-27 13:53:59,0.0
26340,-3744,-736,-3235,5652,-5968,2025-01-27 13:53:59,0.0
23236,-3040,-3876,-4110,131,-6500,2025-01-27 13:53:59,0.0
19612,-2320,-5760,-5573,-4782,-5584,2025-01-27 13:53:59,0.0
20356,-1276,-3228,-6682,-5322,-4829,2025-01-27 13:53:59,0.0
20340,-2352,1204,-7415,-832,-3291,2025-01-27 13:53:59,0.0
26332,-632,5744,-7776,4266,-2988,2025-01-27 13:53:59,0.0
28652,1752,9108,-6874,5269,-6068,2025-01-27 13:53:59,0.0
28536,4812,11020,-4227,2903,-9171,2025-01-27 13:53:59,0.0
23368,7128,11152,-387,-1779,-9526,2025-01-27 13:53:59,0.0
13380,7200,10280,3531,-10057,-3461,2025-01-27 13:53:59,0.0
13716,1116,9212,5475,-14250,1543,2025-01-27 13:53:59,0.0
16580,-2428,5108,3188,-12831,2711,2025-01-27 13:53:59,0.0
17588,-5204,5808,72,-6572,1756,2025-01-27 13:53:59,0.0
16660,-5324,6268,83,1946,1423,2025-01-27 13:53:59,0.0
15856,-1616,6048,607,8438,2404,2025-01-27 13:53:59,0.0
17396,2628,4736,1160,10770,4072,2025-01-27 13:53:59,0.0
20344,4232,4408,3126,9869,4044,2025-01-27 13:53:59,0.0
18564,1024,3200,4810,5533,4756,2025-01-27 13:53:59,0.0
17832,-784,3972,4857,206,6368,2025-01-27 13:53:59,0.0
17184,-2088,5184,4040,-5084,6511,2025-01-27 13:53:59,0.0
15808,-2908,5664,3604,-8565,5428,2025-01-27 13:53:59,0.0
15444,-3588,4528,3672,-9141,4158,2025-01-27 13:53:59,0.0
14920,-4124,2388,4228,-4310,2842,2025-01-27 13:53:59,0.0
15008,-3276,380,3879,2837,1715,2025-01-27 13:53:59,0.0
15548,-2748,1912,3409,6435,1422,2025-01-27 13:53:59,0.0
16056,-2120,1760,3304,6688,1583,2025-01-27 13:53:59,0.0
17132,-1824,708,2722,4741,1657,2025-01-27 13:53:59,0.0
18728,-1908,200,2067,2269,1025,2025-01-27 13:53:59,0.0
19000,-2200,-184,1559,622,17,2025-01-27 13:53:59,0.0
18916,-2064,-36,1131,-453,-947,2025-01-27 13:53:59,0.0
18340,-1932,500,1066,-1206,-1483,2025-01-27 13:53:59,0.0
17860,-1296,-288,1379,-2174,-1691,2025-01-27 13:53:59,0.0
17788,-1100,-104,1547,-2816,-1858,2025-01-27 13:53:59,0.0
17596,-1084,1024,1863,-3293,-2023,2025-01-27 13:53:59,0.0
17268,-1128,2432,2356,-2769,-1797,2025-01-27 13:53:59,0.0
17436,-1296,3916,2970,-685,-1105,2025-01-27 13:53:59,0.0
18512,-1948,3580,3736,2084,-368,2025-01-27 13:53:59,0.0
18752,-3056,1280,3715,3515,579,2025-01-27 13:53:59,0.0
20508,-4268,-1292,3632,3034,2313,2025-01-27 13:53:59,0.0
23800,-4180,-2336,3997,835,2752,2025-01-27 13:53:59,0.0
25916,-2844,-1020,3939,646,2144,2025-01-27 13:53:59,0.0
25244,-1108,1740,3997,-162,2391,2025-01-27 13:53:59,0.0
24060,-3408,2440,4349,-3549,2717,2025-01-27 13:53:59,0.0
25192,-4112,3232,2747,-6172,1942,2025-01-27 13:53:59,0.0
25220,-2960,5304,1081,-5779,191,2025-01-27 13:53:59,0.0
22560,-2908,8496,368,-4602,944,2025-01-27 13:53:59,0.0
21412,-1312,8600,1373,-4947,1483,2025-01-27 13:53:59,0.0
19476,788,8356,2288,-5989,919,2025-01-27 13:53:59,0.0
17636,2784,8108,3583,-7024,119,2025-01-27 13:53:59,0.0
16400,5332,6596,5235,-6933,-265,2025-01-27 13:53:59,0.0
17080,5848,5632,6408,-4366,-706,2025-01-27 13:53:59,0.0
17952,3052,6340,7344,548,-1402,2025-01-27 13:53:59,0.0
19032,-292,5976,7928,4884,-2498,2025-01-27 13:53:59,0.0
19148,-2676,4264,8098,7244,-3451,2025-01-27 13:53:59,0.0
18328,-3772,2588,7857,7448,-3447,2025-01-27 13:53:59,0.0
17832,-3520,1704,6902,5430,-3102,2025-01-27 13:53:59,0.0
18164,-2908,1356,5737,2326,-3089,2025-01-27 13:53:59,
18136,-1972,1452,4830,-623,-2790,2025-01-27 13:53:59,0.0
16928,-232,2404,4752,-2614,-2032,2025-01-27 13:53:59,0.0
16216,1220,2316,5069,-3392,-1229,2025-01-27 13:53:59,0.0
15944,1384,2052,5048,-2640,-942,2025-01-27 13:53:59,0.0
15932,644,2116,4979,-659,-1121,2025-01-27 13:54:00,0.0
16156,100,1768,5046,1892,-1072,2025-01-27 13:54:00,0.0
16636,268,1644,5506,3594,-816,2025-01-27 13:54:00,0.0
17144,480,788,6238,3397,-141,2025-01-27 13:54:00,0.0
17572,512,764,6834,1592,870,2025-01-27 13:54:00,0.0
17544,108,1036,7386,-492,2046,2025-01-27 13:54:00,0.0
17560,-552,1284,7957,-2525,3340,2025-01-27 13:54:00,0.0
17828,-728,1560,8263,-3253,3936,2025-01-27 13:54:00,0.0
17548,-660,2408,8557,-3315,4274,2025-01-27 13:54:00,0.0
18000,20,3312,8796,-2919,4286,2025-01-27 13:54:00,0.0
18692,924,3152,8970,-1855,3752,2025-01-27 13:54:00,0.0
19568,1552,2520,9039,-16,2830,2025-01-27 13:54:00,0.0
20228,224,428,8496,2445,1858,2025-01-27 13:54:00,0.0
21560,-2756,-488,7581,5121,661,2025-01-27 13:54:00,0.0
22112,-7360,-2064,6085,5809,-768,2025-01-27 13:54:00,0.0
22112,-8640,-2756,3700,2372,-142,2025-01-27 13:54:00,0.0
20956,-4812,1568,1890,-2609,1228,2025-01-27 13:54:00,0.0
21928,-716,7008,2194,-4591,2555,2025-01-27 13:54:00,0.0
23880,3500,9660,2401,-3711,2037,2025-01-27 13:54:00,0.0
24196,7760,8916,2560,-2861,-1247,2025-01-27 13:54:00,0.0
20316,10112,7196,4480,-1586,-4715,2025-01-27 13:54:00,0.0
12948,7116,5240,8166,101,-3698,2025-01-27 13:54:00,0.0
12392,1072,4016,11465,1741,-704,2025-01-27 13:54:00,0.0
16940,-3856,4128,11775,3808,320,2025-01-27 13:54:00,0.0
19216,-6040,6164,11316,5076,-361,2025-01-27 13:54:00,0.0
19640,-5808,6836,11537,5096,135,2025-01-27 13:54:00,0.0
20252,-3900,6020,12030,4653,1648,2025-01-27 13:54:00,0.0
22496,-2388,3388,12144,3822,2284,2025-01-27 13:54:00,0.0
21528,-268,3804,12337,495,2676,2025-01-27 13:54:00,0.0
19872,528,5700,13612,-4511,3050,2025-01-27 13:54:00,0.0
18716,100,5404,14806,-7630,2908,2025-01-27 13:54:00,0.0
17916,-876,5124,15551,-8319,2294,2025-01-27 13:54:00,0.0
16648,-1568,6132,16352,-6878,1553,2025-01-27 13:54:00,0.0
15356,-1840,6968,17213,-4556,1356,2025-01-27 13:54:00,0.0
15596,-1348,5796,18150,-1216,1207,2025-01-27 13:54:00,0.0
16648,-916,4196,18636,1921,817,2025-01-27 13:54:00,0.0
17776,-1360,3912,18943,3943,585,2025-01-27 13:54:00,0.0
18876,-2196,4440,19380,4036,667,2025-01-27 13:54:00,0.0
19732,-3440,5200,19759,1758,864,2025-01-27 13:54:00,0.0
19764,-4128,4492,19486,-1116,672,2025-01-27 13:54:00,0.0
19300,-4260,3940,19417,-2393,294,2025-01-27 13:54:00,0.0
19340,-3812,3180,19213,-2058,48,2025-01-27 13:54:00,0.0
19024,-3448,3300,18723,-1789,-262,2025-01-27 13:54:00,0.0
18900,-3132,2812,18247,-1664,-409,2025-01-27 13:54:00,0.0
19020,-3408,2148,17692,-1682,-379,2025-01-27 13:54:00,0.0
19316,-4160,2156,17051,-1791,-216,2025-01-27 13:54:00,0.0
19948,-4672,2088,16661,-1795,39,2025-01-27 13:54:00,0.0
19896,-4372,2140,16490,-2149,415,2025-01-27 13:54:00,0.0
20272,-3848,2020,16719,-3010,549,2025-01-27 13:54:00,0.0
20040,-3104,1832,16969,-4038,236,2025-01-27 13:54:00,0.0
19964,-2200,1128,17294,-5013,-370,2025-01-27 13:54:00,0.0
19332,-960,1408,17772,-5405,-1278,2025-01-27 13:54:00,0.0
19048,-372,1780,18515,-4935,-2366,2025-01-27 13:54:00,0.0
19116,712,1792,18829,-4794,-3319,2025-01-27 13:54:00,0.0
19444,1624,3652,18654,-4707,-3876,2025-01-27 13:54:00,0.0
18788,1068,6716,18351,-4273,-3212,2025-01-27 13:54:00,0.0
17536,-1556,9580,18419,-4104,-1519,2025-01-27 13:54:00,0.0
17052,-3080,8952,18470,-1889,359,2025-01-27 13:54:00,0.0
17132,-2420,6032,18316,2049,395,2025-01-27 13:54:00,0.0
17060,-1112,3328,17549,5549,-212,2025-01-27 13:54:00,0.0
18072,-484,2652,17253,6838,-781,2025-01-27 13:54:01,0.0
19496,-452,2248,17271,6163,-776,2025-01-27 13:54:01,0.0
21980,-392,2960,16953,4991,-1389,2025-01-27 13:54:01,0.0
22784,140,3972,16663,3621,-2606,2025-01-27 13:54:01,0.0
21484,1196,4820,16802,2037,-3394,2025-01-27 13:54:01,0.0
19316,1640,4240,17299,266,-2867,2025-01-27 13:54:01,0.0
18084,1320,2800,17776,-1202,-1783,2025-01-27 13:54:01,0.0
17820,728,1932,17545,-1360,-1286,2025-01-27 13:54:01,0.0
18368,-8,1932,16721,16,-1734,2025-01-27 13:54:01,0.0
17936,-216,3000,16263,1066,-2171,2025-01-27 13:54:01,0.0
17680,-672,2540,16044,1610,-2138,2025-01-27 13:54:01,0.0
17184,-800,1980,15692,1956,-1725,2025-01-27 13:54:01,0.0
17120,-464,1528,15415,2310,-1100,2025-01-27 13:54:01,0.0
17684,184,1244,14875,2381,-588,2025-01-27 13:54:01,0.0
17988,836,1580,14644,2013,-340,2025-01-27 13:54:01,0.0
18188,1176,1116,13953,1388,-177,2025-01-27 13:54:01,0.0
18124,1224,1744,13513,1068,-136,2025-01-27 13:54:01,0.0
18500,1216,1156,13082,986,-144,2025-01-27 13:54:01,0.0
18620,1196,924,12647,994,-334,2025-01-27 13:54:01,0.0
18604,1536,1116,12386,692,-423,2025-01-27 13:54:01,0.0
19244,2504,1868,11788,-326,-778,2025-01-27 13:54:01,0.0
18536,2380,1632,11687,-1488,-779,2025-01-27 13:54:01,0.0
17844,1956,868,11413,-2395,-516,2025-01-27 13:54:01,0.0
17764,1592,164,10800,-2519,-334,2025-01-27 13:54:01,0.0
18088,1356,-16,9767,-1846,-575,2025-01-27 13:54:01,0.0
18652,1160,-328,8563,-881,-752,2025-01-27 13:54:01,0.0
18768,1780,-140,7608,-34,-731,2025-01-27 13:54:01,0.0
18608,2220,-208,6998,470,-716,2025-01-27 13:54:01,0.0
18584,2816,-548,6239,1084,-404,2025-01-27 13:54:01,0.0
21396,4180,-1372,4558,3692,-718,2025-01-27 13:54:01,0.0
24564,4116,244,2586,7159,-2462,2025-01-27 13:54:01,0.0
25368,3580,3656,3356,8490,-4189,2025-01-27 13:54:01,0.0
23008,3892,3096,5230,4787,-4088,2025-01-27 13:54:01,0.0
19884,3584,-892,5430,-2370,-897,2025-01-27 13:54:01,0.0
18648,1352,-300,4622,-7670,2902,2025-01-27 13:54:01,0.0
15944,-436,4504,4114,-10176,6528,2025-01-27 13:54:01,
18368,660,7744,4190,-7690,7977,2025-01-27 13:54:01,0.0
20336,1264,7576,4016,-1964,6498,2025-01-27 13:54:01,0.0
20632,1156,5896,3721,2991,3856,2025-01-27 13:54:01,0.0
18648,792,6972,4894,4866,2017,2025-01-27 13:54:01,0.0
17644,1060,5804,6902,3967,2267,2025-01-27 13:54:01,0.0
18592,-204,3780,7042,2204,3765,2025-01-27 13:54:01,0.0
18824,-1556,4100,6845,1315,4634,2025-01-27 13:54:01,0.0
18196,-2424,3788,6997,832,5614,2025-01-27 13:54:01,0.0
17364,-3116,3280,6712,443,6696,2025-01-27 13:54:01,0.0
18096,-3368,3136,5809,413,7009,2025-01-27 13:54:01,0.0
18000,-3964,3824,5044,1733,5915,2025-01-27 13:54:01,0.0
17856,-4124,2960,4287,2594,4997,2025-01-27 13:54:01,0.0
17044,-3816,2184,3813,2256,4688,2025-01-27 13:54:01,0.0
16696,-2472,1760,3300,1550,4950,2025-01-27 13:54:01,0.0
16768,-1256,2348,3569,696,4949,2025-01-27 13:54:01,0.0
16840,-368,2968,4270,21,4894,2025-01-27 13:54:01,0.0
17008,444,2868,5288,-68,4509,2025-01-27 13:54:01,0.0
16992,80,2716,6112,-64,3963,2025-01-27 13:54:01,0.0
17068,-888,2144,6696,-172,3418,2025-01-27 13:54:01,0.0
17824,-1916,1136,6875,-292,2745,2025-01-27 13:54:01,0.0
18176,-2696,400,6343,-512,1549,2025-01-27 13:54:01,0.0
17796,-3416,-60,5705,-635,368,2025-01-27 13:54:01,0.0
17456,-3696,28,5388,-942,-106,2025-01-27 13:54:01,0.0
17740,-2744,144,5436,-896,-438,2025-01-27 13:54:02,0.0
17904,-1728,-252,5406,-1580,-649,2025-01-27 13:54:02,0.0
17908,-1716,-684,5199,-2527,-875,2025-01-27 13:54:02,0.0
17568,-2452,668,5078,-3203,-825,2025-01-27 13:54:02,0.0
18040,-3316,1444,5373,-2598,-373,2025-01-27 13:54:02,0.0
19408,-3988,1604,5946,-193,586,2025-01-27 13:54:02,0.0
20740,-4460,528,6012,3210,1829,2025-01-27 13:54:02,0.0
20984,-5392,268,5365,4007,3252,2025-01-27 13:54:02,0.0
21856,-5936,-416,4857,2498,4009,2025-01-27 13:54:02,0.0
23832,-4932,-2112,4512,601,2807,2025-01-27 13:54:02,0.0
22956,-3068,-3248,4308,1835,1396,2025-01-27 13:54:02,0.0
23004,-2048,2048,4564,4612,3320,2025-01-27 13:54:02,0.0
23836,-2712,5048,5946,4943,5646,2025-01-27 13:54:02,0.0
23396,-5628,3228,5025,2170,7579,2025-01-27 13:54:02,0.0
26424,-9012,3636,2439,-3035,7362,2025-01-27 13:54:02,0.0
30836,-9024,4448,480,-6487,421,2025-01-27 13:54:02,0.0
22684,-5060,5772,-2813,-8970,-2233,2025-01-27 13:54:02,0.0
19192,-3696,10564,-4080,-10730,-2234,2025-01-27 13:54:02,0.0
15968,-1956,12092,-3081,-11009,-2296,2025-01-27 13:54:02,0.0
14120,556,10080,-1579,-8263,-2257,2025-01-27 13:54:02,0.0
14760,2908,7008,-977,-2761,-2205,2025-01-27 13:54:02,0.0
17204,2908,4860,-471,4499,-3251,2025-01-27 13:54:02,0.0
18564,-1076,4720,174,8623,-4245,2025-01-27 13:54:02,0.0
19460,-4332,2704,-287,9426,-4776,2025-01-27 13:54:02,0.0
19848,-5632,2740,-1224,7097,-4808,2025-01-27 13:54:02,0.0
19740,-4488,2460,-2207,3167,-4974,2025-01-27 13:54:02,0.0
18444,-2972,3736,-2903,-29,-5389,2025-01-27 13:54:02,0.0
16500,-1640,3948,-3436,-2597,-5320,2025-01-27 13:54:02,0.0
14648,-332,4580,-3667,-4320,-5451,2025-01-27 13:54:02,0.0
14300,952,3896,-4006,-5069,-5622,2025-01-27 13:54:02,0.0
13868,1772,2608,-3988,-3304,-5905,2025-01-27 13:54:02,0.0
14324,1448,1972,-3984,-109,-5624,2025-01-27 13:54:02,0.0
14764,656,2168,-3999,1538,-5298,2025-01-27 13:54:02,0.0
15628,-188,1880,-3721,1494,-4664,2025-01-27 13:54:02,0.0
15392,-264,1796,-3005,131,-3818,2025-01-27 13:54:02,0.0
14868,160,1032,-2271,-1152,-2645,2025-01-27 13:54:02,0.0
13868,232,656,-1900,-1657,-1012,2025-01-27 13:54:02,0.0
13480,316,1292,-1283,-664,623,2025-01-27 13:54:02,0.0
15052,136,72,-1115,890,1543,2025-01-27 13:54:02,0.0
15808,-288,-1068,-1459,1655,2426,2025-01-27 13:54:02,0.0
17672,-616,-2184,-2607,1031,2846,2025-01-27 13:54:02,0.0
19028,-1056,-1452,-3816,-298,2377,2025-01-27 13:54:02,0.0
20432,-900,352,-4538,-817,1751,2025-01-27 13:54:02,0.0
22376,-208,1656,-4998,408,1018,2025-01-27 13:54:02,0.0
25452,184,1268,-5305,2268,-466,2025-01-27 13:54:02,0.0
29244,288,-1028,-5806,3112,-3626,2025-01-27 13:54:02,0.0
29752,248,-212,-4001,4619,-8143,2025-01-27 13:54:02,0.0
25352,1960,-2124,-2715,4197,-9277,2025-01-27 13:54:02,0.0
23852,944,512,-3346,2346,-7896,2025-01-27 13:54:02,0.0
24780,-232,2836,-4816,-976,-5779,2025-01-27 13:54:02,0.0
25888,2016,6168,-4624,-3663,-5300,2025-01-27 13:54:02,0.0
25268,5276,11028,-1276,-5529,-5792,2025-01-27 13:54:02,0.0
19496,7364,10028,2225,-9293,-4061,2025-01-27 13:54:02,0.0
15132,3964,10168,4844,-12124,-344,2025-01-27 13:54:02,0.0
15120,732,8128,6571,-11355,917,2025-01-27 13:54:02,0.0
15576,-2176,4668,3881,-6056,1327,2025-01-27 13:54:02,0.0
16492,-4356,3968,-51,1880,1155,2025-01-27 13:54:02,0.0
16480,-4072,5352,-280,12032,3091,2025-01-27 13:54:02,0.0
19188,-64,6000,1407,13245,5415,2025-01-27 13:54:02,0.0
20636,3484,5296,3072,10713,6609,2025-01-27 13:54:02,0.0
20324,4236,5012,4203,5267,6876,2025-01-27 13:54:02,0.0
19076,1852,4888,5531,-511,6727,2025-01-27 13:54:02,0.0
15596,-312,5548,6169,-4997,6662,2025-01-27 13:54:02,0.0
15020,-2240,3796,6266,-7650,6251,2025-01-27 13:54:02,0.0
14756,-4260,3768,5385,-7400,4691,2025-01-27 13:54:03,0.0
13260,-4432,3296,4448,-2862,2482,2025-01-27 13:54:03,0.0
11864,-3476,4116,3721,2092,2381,2025-01-27 13:54:03,0.0
13180,-2712,5348,4456,4992,2919,2025-01-27 13:54:03,0.0
14968,-2108,4320,5285,6638,3198,2025-01-27 13:54:03,0.0
16340,-1764,1660,4950,5661,3559,2025-01-27 13:54:03,0.0
17852,-2112,672,4103,3610,2720,2025-01-27 13:54:03,0.0
18444,-2196,328,3004,1348,1404,2025-01-27 13:54:03,0.0
17952,-2336,-60,1917,-42,-518,2025-01-27 13:54:03,0.0
17360,-1912,-140,1428,-149,-2004,2025-01-27 13:54:03,0.0
16116,-1760,1648,2049,177,-2387,2025-01-27 13:54:03,0.0
16712,-1440,2200,2710,1039,-2495,2025-01-27 13:54:03,0.0
17504,-1408,2640,3566,1602,-2346,2025-01-27 13:54:03,
17872,-1724,2888,4203,1783,-1762,2025-01-27 13:54:03,0.0
19004,-2144,3800,4793,2041,-538,2025-01-27 13:54:03,0.0
21360,-1692,3276,5317,3596,533,2025-01-27 13:54:03,0.0
22120,-3052,652,5025,5397,1350,2025-01-27 13:54:03,0.0
21648,-5876,-1904,3995,5044,3680,2025-01-27 13:54:03,0.0
23756,-8124,-2628,3647,3580,6460,2025-01-27 13:54:03,0.0
27012,-6700,-2868,3572,-202,6936,2025-01-27 13:54:03,0.0
29708,-3192,-1036,2814,-2913,4065,2025-01-27 13:54:03,0.0
26812,-572,4324,2598,-1796,2250,2025-01-27 13:54:03,0.0
22804,-1712,5656,5376,-2367,3822,2025-01-27 13:54:03,0.0
25400,-7580,5968,-1730,-8119,1092,2025-01-27 13:54:03,0.0
19872,-3312,6384,-4729,-11205,-1195,2025-01-27 13:54:03,0.0
16888,-996,10632,-6140,-13566,-982,2025-01-27 13:54:03,0.0
16096,1956,10924,-4551,-9663,-1060,2025-01-27 13:54:03,0.0
15708,3484,9220,-3002,-1632,-861,2025-01-27 13:54:03,0.0
18108,1888,6548,-1468,7541,-1831,2025-01-27 13:54:03,0.0
20716,-2156,3864,-1263,12342,-3955,2025-01-27 13:54:03,0.0
22008,-6156,2164,-2884,13276,-5896,2025-01-27 13:54:03,0.0
21464,-7628,2724,-4957,9772,-6086,2025-01-27 13:54:03,0.0
20996,-5824,3972,-6226,3840,-5645,2025-01-27 13:54:03,0.0
19292,-2860,3892,-6719,-1308,-6124,2025-01-27 13:54:03,0.0
14740,124,4028,-7762,-7211,-6119,2025-01-27 13:54:03,0.0
12612,1452,4808,-8056,-10533,-5807,2025-01-27 13:54:03,0.0
11976,2024,4488,-7774,-11183,-5578,2025-01-27 13:54:03,0.0
11592,2444,3512,-7299,-7753,-5711,2025-01-27 13:54:03,0.0
10944,2276,2568,-7151,-1248,-5229,2025-01-27 13:54:03,0.0
10896,1252,3080,-6688,3633,-3986,2025-01-27 13:54:03,0.0
12984,-40,2568,-5980,5604,-3026,2025-01-27 13:54:03,0.0
14524,-768,1492,-5181,5052,-2418,2025-01-27 13:54:03,0.0
13948,-512,1116,-3866,2201,-791,2025-01-27 13:54:03,0.0
13496,-8,1344,-3245,417,1008,2025-01-27 13:54:03,0.0
13972,-132,1520,-2913,237,1893,2025-01-27 13:54:03,0.0
14212,-580,-24,-2876,1335,2341,2025-01-27 13:54:03,0.0
16428,-1048,-2940,-3603,3206,2862,2025-01-27 13:54:03,0.0
19152,-476,-2076,-4842,3625,3067,2025-01-27 13:54:03,0.0
21968,352,-1084,-5953,2960,2759,2025-01-27 13:54:03,0.0
24712,120,1924,-6550,2432,1482,2025-01-27 13:54:03,0.0
26912,-1628,2504,-6410,2327,-434,2025-01-27 13:54:03,0.0
31608,-1780,1588,-5678,4060,-4422,2025-01-27 13:54:03,0.0
29376,-60,-2424,-3700,5659,-9300,2025-01-27 13:54:03,0.0
23592,1924,-5388,-4367,3739,-10002,2025-01-27 13:54:03,0.0
23212,2200,-848,-5180,1255,-8307,2025-01-27 13:54:03,0.0
23860,612,3404,-5870,1483,-5417,2025-01-27 13:54:03,0.0
29256,2624,7228,-6346,2351,-4633,2025-01-27 13:54:03,0.0
31408,3580,13916,-3284,1050,-7895,2025-01-27 13:54:03,0.0
26220,4772,14896,1473,-4881,-10150,2025-01-27 13:54:03,0.0
16924,5928,11812,4256,-13397,-6821,2025-01-27 13:54:03,0.0
9368,2108,12704,7939,-21245,1025,2025-01-27 13:54:04,0.0
11448,-1224,8236,8871,-20198,5712,2025-01-27 13:54:04,0.0
16740,-3300,2892,4464,-9597,5039,2025-01-27 13:54:04,0.0
16180,-5020,3172,511,5855,2836,2025-01-27 13:54:04,0.0
14800,-3244,4860,-392,14841,2751,2025-01-27 13:54:04,0.0
15524,964,5884,703,17817,4330,2025-01-27 13:54:04,0.0
18528,4536,5968,2701,16391,5855,2025-01-27 13:54:04,0.0
21132,4328,6888,5662,10289,6041,2025-01-27 13:54:04,0.0
18952,164,6488,8058,3589,6909,2025-01-27 13:54:04,0.0
16672,-2404,4884,8020,-3772,8068,2025-01-27 13:54:04,0.0
16212,-3444,3864,6239,-10269,7571,2025-01-27 13:54:04,0.0
15428,-4080,3256,4959,-13313,5923,2025-01-27 13:54:04,0.0
16140,-5192,1868,4638,-10280,2360,2025-01-27 13:54:04,0.0
11808,-3712,1504,3038,-2467,918,2025-01-27 13:54:04,0.0
11944,-3384,4876,3358,4676,1752,2025-01-27 13:54:04,0.0
14528,-2684,4160,5096,7429,1867,2025-01-27 13:54:04,0.0
15668,-2004,1260,5406,7394,1862,2025-01-27 13:54:04,0.0
16848,-1616,-468,4310,5637,1488,2025-01-27 13:54:04,0.0
16608,-2188,972,2091,2389,-2045,2025-01-27 13:54:04,0.0
17260,-2004,1580,2935,3093,-1800,2025-01-27 13:54:04,0.0
18524,-2160,1872,3915,3297,-1528,2025-01-27 13:54:04,0.0
19456,-2304,2456,4290,3074,-1150,2025-01-27 13:54:04,0.0
19976,-2380,3144,4159,2848,-371,2025-01-27 13:54:04,0.0
21068,-1760,3384,3988,2794,551,2025-01-27 13:54:04,0.0
21444,-2308,1060,3890,3422,1423,2025-01-27 13:54:04,0.0
21612,-4592,-904,3530,4300,3646,2025-01-27 13:54:04,0.0
23048,-6540,-1700,3415,4746,6511,2025-01-27 13:54:04,0.0
26216,-5872,-764,3536,2589,6568,2025-01-27 13:54:04,0.0
28580,-2756,1856,2472,2285,3883,2025-01-27 13:54:04,0.0
27056,-720,6448,2348,3057,3078,2025-01-27 13:54:04,0.0
23968,-2880,4488,2765,2045,4862,2025-01-27 13:54:04,0.0
23332,-6544,4960,-544,-1610,6911,2025-01-27 13:54:04,0.0
26728,-8424,7344,-1615,-5819,5317,2025-01-27 13:54:04,0.0
26872,-4664,5008,-2721,-9080,-4,2025-01-27 13:54:04,0.0
20632,-1832,7652,-6106,-12651,-1670,2025-01-27 13:54:04,0.0
16948,-1492,11752,-7134,-15703,-1346,2025-01-27 13:54:04,0.0
15348,-828,11172,-5424,-13787,-1380,2025-01-27 13:54:04,0.0
13564,1140,8684,-3825,-6226,-1346,2025-01-27 13:54:04,0.0
14760,1584,5692,-3010,2791,-1854,2025-01-27 13:54:04,0.0
20544,-2968,3080,-5529,5964,-4779,2025-01-27 13:54:04,0.0
19792,-1032,3844,-6063,460,-5733,2025-01-27 13:54:04,0.0
16216,272,4164,-6442,-4232,-5958,2025-01-27 13:54:04,0.0
13764,1008,4916,-6449,-7807,-5258,2025-01-27 13:54:04,0.0
12952,1256,4536,-5967,-9373,-4747,2025-01-27 13:54:04,0.0
13004,1212,2644,-5650,-6976,-4989,2025-01-27 13:54:04,0.0
12384,1260,2408,-6201,-1751,-4618,2025-01-27 13:54:04,0.0
13436,976,2788,-6203,1922,-3854,2025-01-27 13:54:04,0.0
14856,644,2424,-5581,3275,-3535,2025-01-27 13:54:04,0.0
15320,612,1768,-4579,2508,-2878,2025-01-27 13:54:04,0.0
15432,844,1236,-3053,986,-1544,2025-01-27 13:54:04,0.0
14788,1848,616,-1833,-804,322,2025-01-27 13:54:04,0.0
15152,1244,456,-1175,-2033,1882,2025-01-27 13:54:04,0.0
15120,-396,216,-1054,-2890,2469,2025-01-27 13:54:04,
15460,-1980,-1520,-2122,-2369,2824,2025-01-27 13:54:04,0.0
15692,-3180,-1012,-3457,-709,2986,2025-01-27 13:54:04,0.0
16576,-2636,192,-4891,894,3100,2025-01-27 13:54:04,0.0
20064,-1476,536,-6128,2321,2719,2025-01-27 13:54:04,0.0
24164,-1692,868,-6876,3864,1571,2025-01-27 13:54:04,0.0
27936,-1720,-512,-7525,4532,-410,2025-01-27 13:54:05,0.0
32767,-412,748,-7155,6861,-5892,2025-01-27 13:54:05,0.0
29720,1548,48,-3704,7832,-11316,2025-01-27 13:54:05,0.0
20444,2820,-3096,-3251,3659,-9570,2025-01-27 13:54:05,0.0
19540,944,-944,-4514,-2355,-4950,2025-01-27 13:54:05,0.0
21024,-3188,1120,-5123,-3232,-2115,2025-01-27 13:54:05,0.0
24932,2416,4460,-7591,-424,-1943,2025-01-27 13:54:05,0.0
27556,3416,12628,-6473,1161,-3971,2025-01-27 13:54:05,0.0
24932,5432,15224,-2134,-1136,-6273,2025-01-27 13:54:05,0.0
17848,6484,14404,1998,-6865,-4217,2025-01-27 13:54:05,0.0
15244,3100,13536,6682,-10536,419,2025-01-27 13:54:05,0.0
16568,-820,8596,7763,-9308,2234,2025-01-27 13:54:05,0.0
16788,-2944,3708,3907,-3253,2199,2025-01-27 13:54:05,0.0
15636,-3292,4724,1613,3872,1911,2025-01-27 13:54:05,0.0
15616,-372,5280,2194,9376,2543,2025-01-27 13:54:05,0.0
16652,3024,6368,3879,11701,3944,2025-01-27 13:54:05,0.0
17788,5060,5756,5976,10830,6204,2025-01-27 13:54:05,0.0
18580,4164,4656,7474,6354,8109,2025-01-27 13:54:05,0.0
18628,604,5628,8777,418,8672,2025-01-27 13:54:05,0.0
17444,-3684,5988,9986,-4420,7887,2025-01-27 13:54:05,0.0
15376,-5096,3560,8920,-9849,6804,2025-01-27 13:54:05,0.0
15620,-6364,2608,7553,-9601,3816,2025-01-27 13:54:05,0.0
12260,-4644,1360,5566,-3103,1703,2025-01-27 13:54:05,0.0
10812,-3776,4108,4886,2975,2115,2025-01-27 13:54:05,0.0
13276,-2748,4872,5879,6128,2282,2025-01-27 13:54:05,0.0
15580,-1748,2308,6246,6475,2357,2025-01-27 13:54:05,0.0
17264,-1132,152,5575,4685,2255,2025-01-27 13:54:05,0.0
18860,-1224,-760,4523,1949,842,2025-01-27 13:54:05,0.0
18640,-1520,140,3267,170,-989,2025-01-27 13:54:05,0.0
16576,-1688,1512,2695,-1236,-1914,2025-01-27 13:54:05,0.0
15792,-1660,2924,3140,-622,-2282,2025-01-27 13:54:05,0.0
15912,-1276,2700,3856,678,-2177,2025-01-27 13:54:05,0.0
17784,-1448,2624,4798,2093,-2105,2025-01-27 13:54:05,0.0
19008,-1992,2328,5664,3535,-1871,2025-01-27 13:54:05,0.0
20560,-1324,2116,5983,4265,-648,2025-01-27 13:54:05,0.0
22284,-804,1104,5622,4116,713,2025-01-27 13:54:05,0.0
22564,-3320,-1124,4809,3471,2619,2025-01-27 13:54:05,0.0
22312,-7504,-2240,3581,2840,6862,2025-01-27 13:54:05,0.0
24568,-8456,-1512,3210,668,8758,2025-01-27 13:54:05,0.0
28944,-5864,-412,2508,-625,5861,2025-01-27 13:54:05,0.0
28000,620,2896,543,1486,3353,2025-01-27 13:54:05,0.0
23628,-676,5920,1659,963,4506,2025-01-27 13:54:05,0.0
22496,-4608,4276,1401,-2380,6680,2025-01-27 13:54:05,0.0
22464,-7872,4788,-1460,-6522,8904,2025-01-27 13:54:05,0.0
28768,-10528,8052,-2772,-10787,5696,2025-01-27 13:54:05,0.0
24256,-6036,5936,-5404,-9532,-1788,2025-01-27 13:54:05,0.0
17996,-3300,10032,-8459,-10822,-4451,2025-01-27 13:54:05,0.0
13056,792,12796,-6879,-8349,-4290,2025-01-27 13:54:05,0.0
13708,3852,11156,-3895,-2752,-2713,2025-01-27 13:54:05,0.0
17016,4364,6648,-1760,6299,-2685,2025-01-27 13:54:05,0.0
20772,-104,3700,-955,14182,-3996,2025-01-27 13:54:05,0.0
21432,-4320,2312,-2250,16830,-5594,2025-01-27 13:54:05,0.0
21188,-6768,2792,-3989,12219,-5943,2025-01-27 13:54:05,0.0
19508,-5076,5000,-4847,4104,-5793,2025-01-27 13:54:05,0.0
16932,-1552,4224,-4972,-3309,-6064,2025-01-27 13:54:05,0.0
14424,872,4092,-5607,-7822,-5807,2025-01-27 13:54:05,0.0
13268,2164,4220,-5907,-10285,-5440,2025-01-27 13:54:05,0.0
12444,3172,4948,-5046,-9647,-5586,2025-01-27 13:54:05,0.0
12080,3652,2712,-4168,-4832,-5467,2025-01-27 13:54:05,0.0
12468,1952,2456,-3946,325,-4408,2025-01-27 13:54:05,0.0
14472,-52,2624,-3893,2004,-3772,2025-01-27 13:54:06,0.0
15520,-1748,2436,-3458,1331,-3461,2025-01-27 13:54:06,0.0
14408,-1672,1156,-2660,-639,-2280,2025-01-27 13:54:06,0.0
12872,-820,284,-1721,-2177,-88,2025-01-27 13:54:06,0.0
13780,-848,-696,-1275,-1803,1691,2025-01-27 13:54:06,0.0
14732,-1748,-1824,-1885,333,2655,2025-01-27 13:54:06,0.0
14688,-2552,-2236,-2913,2782,3289,2025-01-27 13:54:06,0.0
16280,-2464,-1452,-4177,4639,3346,2025-01-27 13:54:06,0.0
16624,-6632,5768,-811,3046,3418,2025-01-27 13:54:06,0.0
16636,-4156,4736,-706,9686,3705,2025-01-27 13:54:06,0.0
17032,1084,3696,158,13278,5340,2025-01-27 13:54:06,0.0
20204,4360,2244,779,12475,6419,2025-01-27 13:54:06,0.0
21260,4680,5536,2573,8701,5973,2025-01-27 13:54:06,0.0
18948,2172,6092,4910,3031,5963,2025-01-27 13:54:06,0.0
16452,-540,4716,5534,-4300,7243,2025-01-27 13:54:06,0.0
15292,-2004,3704,5099,-10745,7386,2025-01-27 13:54:06,0.0
16976,-1180,2436,2080,1483,-2108,2025-01-27 13:54:06,0.0
17300,-872,2000,3168,2905,-1911,2025-01-27 13:54:06,0.0
18488,-1540,1848,4404,4667,-1894,2025-01-27 13:54:06,0.0
20500,-1948,1024,5207,5591,-1332,2025-01-27 13:54:06,0.0
21560,-1684,2136,5369,5841,-387,2025-01-27 13:54:06,0.0
22248,-1688,2684,5228,4514,476,2025-01-27 13:54:06,0.0
21456,-4444,1220,5099,2974,2324,2025-01-27 13:54:06,0.0
22640,-4636,4212,4977,-333,4347,2025-01-27 13:54:06,0.0
21112,-8612,2940,2053,-417,7131,2025-01-27 13:54:06,0.0
23604,-11360,6240,-1250,-3695,8783,2025-01-27 13:54:06,0.0
29552,-11464,8296,-2434,-7368,4240,2025-01-27 13:54:06,0.0
24368,-5220,6612,-5881,-9463,-1536,2025-01-27 13:54:06,0.0
20604,-1528,10200,-8714,-10821,-3167,2025-01-27 13:54:06,0.0
17448,1776,13472,-7261,-8298,-3830,2025-01-27 13:54:06,0.0
15672,4360,13400,-4088,-4909,-3563,2025-01-27 13:54:07,0.0
14024,-84,-228,-1286,-2388,4104,2025-01-27 13:54:07,0.0
15072,-36,724,-1834,-1,4203,2025-01-27 13:54:07,0.0
16668,-48,1932,-2710,3438,3578,2025-01-27 13:54:07,0.0
18116,-1888,7488,3138,8758,4429,2025-01-27 13:54:07,
