acceleration_x,acceleration_y,acceleration_z,gyroscope_x,gyroscope_y,gyroscope_z,timestamp,label
18376,-1504,6048,-156,356,-256,2025-01-27 13:52:25,0.0
18344,-1444,6044,-253,345,-228,2025-01-27 13:52:25,0.0
18348,-1336,5816,-286,380,-257,2025-01-27 13:52:25,0.0
18440,-1360,5864,-305,430,-252,2025-01-27 13:52:25,0.0
18472,-1288,6088,-349,479,-223,2025-01-27 13:52:25,0.0
18680,-1320,6004,-371,449,-222,2025-01-27 13:52:25,0.0
18632,-1332,6132,-485,242,-186,2025-01-27 13:52:25,0.0
18532,-1316,6052,-494,29,-167,2025-01-27 13:52:25,0.0
18356,-1244,6016,-526,-97,-169,2025-01-27 13:52:25,0.0
18304,-1148,6020,-431,-77,-141,2025-01-27 13:52:25,0.0
18260,-1092,6020,-363,33,-161,2025-01-27 13:52:25,0.0
18444,-1180,5824,-300,124,-152,2025-01-27 13:52:25,0.0
18416,-1144,5892,-267,113,-164,2025-01-27 13:52:25,0.0
18468,-1120,6008,-242,79,-175,2025-01-27 13:52:25,0.0
18412,-1132,5884,-181,36,-159,2025-01-27 13:52:25,0.0
18356,-1148,5892,-132,69,-138,2025-01-27 13:52:25,0.0
18416,-1176,6080,-47,167,-176,2025-01-27 13:52:25,0.0
18560,-1272,5888,-34,200,-187,2025-01-27 13:52:25,0.0
18652,-1180,6056,-41,72,-181,2025-01-27 13:52:25,0.0
18528,-1144,6028,31,-3,-161,2025-01-27 13:52:25,0.0
18316,-1208,5992,17,-27,-170,2025-01-27 13:52:25,0.0
18316,-1224,5892,62,58,-123,2025-01-27 13:52:25,0.0
18352,-1128,6052,125,122,-121,2025-01-27 13:52:25,0.0
18408,-1184,5984,97,126,-99,2025-01-27 13:52:25,0.0
18380,-1300,6076,113,30,-116,2025-01-27 13:52:25,0.0
18424,-1124,5952,139,-3,-142,2025-01-27 13:52:25,0.0
18412,-1204,5856,173,22,-83,2025-01-27 13:52:25,0.0
18436,-1200,6100,179,-49,-96,2025-01-27 13:52:25,0.0
18460,-1376,5956,133,11,-99,2025-01-27 13:52:25,0.0
18396,-1408,5936,120,33,-117,2025-01-27 13:52:25,0.0
18416,-1424,5780,72,84,-140,2025-01-27 13:52:25,0.0
18368,-1328,5820,49,77,-118,2025-01-27 13:52:25,0.0
18400,-1120,6296,76,-85,15,2025-01-27 13:52:25,0.0
18376,-1480,6280,300,-370,260,2025-01-27 13:52:25,0.0
18436,-1944,5600,10,-54,248,2025-01-27 13:52:25,0.0
18184,-1872,5860,-219,279,239,2025-01-27 13:52:25,0.0
17904,-1784,6300,-194,302,408,2025-01-27 13:52:25,0.0
17908,-1888,6076,-97,705,577,2025-01-27 13:52:25,0.0
17852,-2260,6212,-217,1481,716,2025-01-27 13:52:25,0.0
17704,-2784,6372,-428,1862,886,2025-01-27 13:52:25,0.0
18212,-3012,6516,-557,2101,1041,2025-01-27 13:52:26,0.0
18696,-2984,6424,-639,1989,1035,2025-01-27 13:52:26,0.0
19048,-2880,6232,-622,1455,955,2025-01-27 13:52:26,0.0
19336,-2676,5252,-577,589,654,2025-01-27 13:52:26,0.0
19080,-2800,5168,-553,-213,322,2025-01-27 13:52:26,0.0
18628,-3052,5228,-650,-902,-94,2025-01-27 13:52:26,0.0
17920,-3000,5664,-653,-651,-239,2025-01-27 13:52:26,0.0
17848,-2944,5288,-498,-6,-283,2025-01-27 13:52:26,0.0
18360,-2828,4548,-567,176,-632,2025-01-27 13:52:26,0.0
18792,-2664,4264,-659,-66,-1017,2025-01-27 13:52:26,0.0
19120,-2384,4332,-754,-326,-1245,2025-01-27 13:52:26,0.0
19360,-2404,4716,-791,-599,-1337,2025-01-27 13:52:26,0.0
19296,-2340,4888,-1058,-898,-1456,2025-01-27 13:52:26,0.0
19012,-2600,5252,-1335,-1168,-1444,2025-01-27 13:52:26,0.0
18932,-2740,5604,-1454,-1403,-1597,2025-01-27 13:52:26,0.0
18604,-2576,5536,-1598,-1468,-1768,2025-01-27 13:52:26,0.0
18296,-2140,5380,-1701,-1199,-1837,2025-01-27 13:52:26,0.0
17736,-1480,6144,-1668,-808,-1924,2025-01-27 13:52:26,0.0
17200,-720,6720,-1463,-427,-1959,2025-01-27 13:52:26,0.0
16548,500,6964,-949,22,-1782,2025-01-27 13:52:26,0.0
16396,1656,6500,-157,643,-1431,2025-01-27 13:52:26,0.0
17168,3156,5804,623,1839,-1212,2025-01-27 13:52:26,0.0
18720,4436,5604,1366,2915,-1306,2025-01-27 13:52:26,0.0
20608,4800,5584,2370,3222,-1343,2025-01-27 13:52:26,0.0
23124,3152,4852,3756,3123,-1178,2025-01-27 13:52:26,0.0
25948,-1204,932,4381,1309,-2805,2025-01-27 13:52:26,0.0
25456,-5224,-2464,2004,-789,-5512,2025-01-27 13:52:26,0.0
21048,-6120,-1404,-1315,-2150,-6685,2025-01-27 13:52:26,0.0
16332,-5084,2800,-3145,-2218,-6499,2025-01-27 13:52:26,0.0
13372,-2304,3452,-4013,-1035,-5290,2025-01-27 13:52:26,0.0
12004,844,3748,-3951,1229,-4018,2025-01-27 13:52:26,0.0
13676,3936,2832,-3108,3335,-3361,2025-01-27 13:52:26,0.0
15932,4524,2352,-2608,3532,-3080,2025-01-27 13:52:26,0.0
18272,3428,2024,-2231,2607,-2473,2025-01-27 13:52:26,0.0
19672,588,1376,-2059,624,-1307,2025-01-27 13:52:26,0.0
20016,-1044,920,-2640,-812,-1361,2025-01-27 13:52:26,0.0
18504,-1268,1220,-3663,-1683,-1317,2025-01-27 13:52:26,0.0
16012,-164,3508,-4156,-694,-354,2025-01-27 13:52:26,0.0
15656,1388,4608,-4218,1515,428,2025-01-27 13:52:26,0.0
16860,2456,4396,-4221,3240,673,2025-01-27 13:52:26,0.0
18312,3316,3976,-4245,3553,509,2025-01-27 13:52:26,0.0
19632,4216,4400,-3726,3114,823,2025-01-27 13:52:26,0.0
21020,4924,4528,-3156,1814,1083,2025-01-27 13:52:26,0.0
22232,4468,5504,-2507,329,1295,2025-01-27 13:52:26,0.0
21932,3356,5032,-2145,-380,1020,2025-01-27 13:52:26,0.0
20308,956,4848,-2161,-408,988,2025-01-27 13:52:26,0.0
18744,-560,3552,-2334,2,1452,2025-01-27 13:52:26,0.0
19192,640,2280,-2515,1151,1693,2025-01-27 13:52:26,0.0
20616,3544,2420,-2837,1076,1630,2025-01-27 13:52:26,0.0
23344,3844,3876,-1543,837,1046,2025-01-27 13:52:26,0.0
24832,3852,2668,-890,-135,719,2025-01-27 13:52:26,0.0
25052,3104,3764,-565,-1216,383,2025-01-27 13:52:26,0.0
24468,3192,5940,-221,-1842,534,2025-01-27 13:52:26,0.0
24216,4108,7520,302,-985,777,2025-01-27 13:52:26,0.0
24232,4820,9608,1224,539,453,2025-01-27 13:52:26,0.0
23192,4992,10460,2833,1594,-212,2025-01-27 13:52:26,0.0
20152,5036,10480,4870,847,-53,2025-01-27 13:52:26,0.0
16104,5228,9672,7316,-733,1408,2025-01-27 13:52:26,0.0
12408,4688,7852,8747,-2483,3782,2025-01-27 13:52:26,0.0
11120,1924,8068,9186,-3932,5235,2025-01-27 13:52:26,
10300,228,7756,8605,-4077,5696,2025-01-27 13:52:26,0.0
10200,-952,8708,7927,-2766,6253,2025-01-27 13:52:26,0.0
11724,-1240,9504,7912,-738,6497,2025-01-27 13:52:27,0.0
13980,224,10236,8420,2070,6230,2025-01-27 13:52:27,0.0
17236,2308,10200,9675,4589,5442,2025-01-27 13:52:27,0.0
19852,2592,8820,11030,6043,4234,2025-01-27 13:52:27,0.0
20300,1088,7408,11603,4781,4125,2025-01-27 13:52:27,0.0
18996,-1368,8404,12085,625,5444,2025-01-27 13:52:27,0.0
18220,-3908,9080,12881,-4025,6857,2025-01-27 13:52:27,0.0
17088,-4700,7372,13157,-4743,7071,2025-01-27 13:52:27,0.0
15804,-3932,7152,12356,-2901,6777,2025-01-27 13:52:27,0.0
15220,-3092,7292,11592,-795,6504,2025-01-27 13:52:27,0.0
16048,-1512,7388,11758,142,7218,2025-01-27 13:52:27,0.0
17520,-676,7268,12680,408,7926,2025-01-27 13:52:27,0.0
19028,-80,6744,13464,-441,8089,2025-01-27 13:52:27,0.0
18476,-500,6864,14043,-1447,7665,2025-01-27 13:52:27,0.0
17948,-1284,6884,14735,-1928,6954,2025-01-27 13:52:27,0.0
16152,-2508,6956,14638,-1248,6338,2025-01-27 13:52:27,0.0
15260,-3556,6296,13743,-275,6015,2025-01-27 13:52:27,0.0
14884,-4500,5916,12545,426,5826,2025-01-27 13:52:27,0.0
15700,-5220,5224,11503,-175,5449,2025-01-27 13:52:27,0.0
17572,-5144,3712,10973,-1198,4603,2025-01-27 13:52:27,0.0
18636,-4012,3076,10270,-1844,3267,2025-01-27 13:52:27,0.0
18688,-3452,2964,9450,-2322,2140,2025-01-27 13:52:27,0.0
18272,-2820,5396,9348,-2136,1453,2025-01-27 13:52:27,0.0
18760,-1940,6784,10122,-1912,1704,2025-01-27 13:52:27,0.0
19544,28,6836,11686,-1478,2696,2025-01-27 13:52:27,0.0
21164,2600,4792,12675,-1208,3355,2025-01-27 13:52:27,0.0
22404,1904,3552,13036,-1323,3098,2025-01-27 13:52:27,0.0
21280,-2636,1028,12547,-2632,3820,2025-01-27 13:52:27,0.0
22904,-5668,1176,12006,-3766,4881,2025-01-27 13:52:27,0.0
23980,-6288,984,11869,-4480,4364,2025-01-27 13:52:27,0.0
23492,-4676,4840,10288,-4108,2773,2025-01-27 13:52:27,0.0
23436,-3420,9132,9277,-2191,3619,2025-01-27 13:52:27,0.0
22096,-5984,5492,7809,-1509,5525,2025-01-27 13:52:27,0.0
24236,-8692,6532,3721,-3127,6589,2025-01-27 13:52:27,0.0
28052,-10884,12072,1657,-5732,2348,2025-01-27 13:52:27,0.0
21916,-7948,9932,-764,-7131,-2875,2025-01-27 13:52:27,0.0
15208,-5492,11156,-3232,-5115,-3512,2025-01-27 13:52:27,0.0
11500,-2236,11704,-2447,-1056,-2393,2025-01-27 13:52:27,0.0
12248,1076,10696,-773,4339,-1250,2025-01-27 13:52:27,0.0
16296,2824,9088,833,8192,-1507,2025-01-27 13:52:29,0.0
19796,2052,7052,1437,8867,-3209,2025-01-27 13:52:29,0.0
21640,36,5780,1191,6842,-5144,2025-01-27 13:52:29,0.0
21784,-2604,5608,836,4349,-6345,2025-01-27 13:52:29,0.0
20972,-3540,6128,485,1960,-6641,2025-01-27 13:52:29,0.0
19360,-2880,6660,503,-419,-6977,2025-01-27 13:52:29,0.0
15052,-2172,6740,494,-2386,-7199,2025-01-27 13:52:29,0.0
11444,-1960,6784,145,-2474,-6949,2025-01-27 13:52:29,0.0
9492,-2112,5600,-188,-1395,-6604,2025-01-27 13:52:29,0.0
17244,-1580,5424,3146,1770,-1448,2025-01-27 13:52:29,0.0
19608,-1764,6120,3186,3117,-479,2025-01-27 13:52:29,0.0
21176,-2784,6324,3084,4578,1213,2025-01-27 13:52:31,0.0
21160,-5400,4132,2453,3983,5099,2025-01-27 13:52:31,0.0
23828,-8216,2588,2479,1408,10049,2025-01-27 13:52:31,0.0
29892,-8336,368,2183,-3082,10629,2025-01-27 13:52:31,0.0
32767,-6336,2540,91,-3490,5362,2025-01-27 13:52:31,0.0
27208,-4196,10352,-346,-2322,3043,2025-01-27 13:52:31,0.0
23780,-5560,9492,806,-2393,4350,2025-01-27 13:52:31,0.0
23596,-8252,7216,-1551,-3866,5470,2025-01-27 13:52:31,0.0
24932,-9152,11364,-3928,-7238,4947,2025-01-27 13:52:32,0.0
17824,-2536,356,3183,1041,-949,2025-01-27 13:52:32,0.0
16900,-2832,2308,3070,242,-1925,2025-01-27 13:52:32,0.0
16880,-2508,2416,3456,596,-2476,2025-01-27 13:52:32,0.0
17064,-1936,4200,4362,996,-2222,2025-01-27 13:52:32,0.0
17472,-2032,5280,5108,1472,-1480,2025-01-27 13:52:32,0.0
19296,-2576,4372,5365,1616,-39,2025-01-27 13:52:32,0.0
21588,-2744,3092,4902,2260,1504,2025-01-27 13:52:32,0.0
23052,-3504,1628,4211,2759,2485,2025-01-27 13:52:32,0.0
23200,-5516,11152,3967,-355,5191,2025-01-27 13:52:32,0.0
22496,-10416,9532,-491,-4887,8058,2025-01-27 13:52:32,0.0
25196,-16272,11500,-3469,-9841,5956,2025-01-27 13:52:32,0.0
22104,-8108,5736,-6006,-6230,-623,2025-01-27 13:52:32,0.0
18336,-2656,7488,-8626,-6917,-1965,2025-01-27 13:52:32,0.0
17284,1220,10724,-8681,-6542,-2667,2025-01-27 13:52:34,0.0
16680,2912,13056,-6229,-2887,-2943,2025-01-27 13:52:34,0.0
17204,2708,11648,-2964,1322,-3060,2025-01-27 13:52:34,0.0
18632,1056,7824,-1303,4610,-3708,2025-01-27 13:52:34,0.0
20860,-3664,5528,-1791,5251,-5657,2025-01-27 13:52:34,0.0
19864,-6428,4968,-2966,3262,-6556,2025-01-27 13:52:34,0.0
17932,-6168,5992,-3885,629,-6391,2025-01-27 13:52:34,0.0
17768,-1348,5740,2626,1168,4808,2025-01-27 13:52:34,0.0
19264,1492,6828,3385,2975,6080,2025-01-27 13:52:34,0.0
20508,-6300,3344,-352,2862,-4849,2025-01-27 13:52:34,0.0
19204,-6248,3508,-1697,-19,-5011,2025-01-27 13:52:34,0.0
16520,-4216,4968,-2394,-1654,-5733,2025-01-27 13:52:34,0.0
14968,-1664,3976,-2712,-3918,-6495,2025-01-27 13:52:34,0.0
12704,-56,4264,-3361,-5699,-6686,2025-01-27 13:52:34,0.0
11416,1096,4096,-3766,-6318,-6283,2025-01-27 13:52:34,0.0
11492,1912,3292,-3843,-4697,-5351,2025-01-27 13:52:34,0.0
11872,1884,2288,-4117,-585,-4077,2025-01-27 13:52:34,0.0
14188,1412,2424,-4259,2004,-3170,2025-01-27 13:52:34,0.0
16108,528,2892,-4035,1969,-3018,2025-01-27 13:52:34,0.0
16784,-60,2524,-3647,241,-2962,2025-01-27 13:52:34,0.0
15732,176,2648,-2929,-2224,-1960,2025-01-27 13:52:34,0.0
22380,-528,2188,-6503,968,-2191,2025-01-27 13:52:34,0.0
25108,4084,10816,-5609,7562,-4046,2025-01-27 13:52:35,0.0
27440,5500,15188,-2353,9307,-7254,2025-01-27 13:52:35,0.0
22584,5568,15268,1180,4608,-8731,2025-01-27 13:52:35,0.0
16356,2924,12856,4041,-3842,-4446,2025-01-27 13:52:36,
16456,-1872,9224,4905,-9387,816,2025-01-27 13:52:36,0.0
17356,-4748,5140,2634,-11483,3963,2025-01-27 13:52:36,0.0
17612,-6988,4956,-60,-10763,4890,2025-01-27 13:52:36,0.0
15316,1364,3976,-3326,3490,5418,2025-01-27 13:52:36,0.0
18160,3540,7876,-1987,5443,5085,2025-01-27 13:52:36,0.0
18404,3784,8224,1099,5944,4126,2025-01-27 13:52:36,0.0
15868,1744,4852,2315,3110,4687,2025-01-27 13:52:36,0.0
15372,-276,4092,1819,-1625,5329,2025-01-27 13:52:36,0.0
18568,-2764,100,16948,-4246,-463,2025-01-27 13:52:36,0.0
18344,-2208,996,16446,-3226,-2225,2025-01-27 13:52:36,0.0
18992,-1636,3512,16187,-1877,-3595,2025-01-27 13:52:36,0.0
20120,-1660,5360,16530,-195,-3988,2025-01-27 13:52:36,0.0
20832,-1952,5448,16160,1158,-3304,2025-01-27 13:52:36,0.0
21092,-1948,6508,15155,2514,-1193,2025-01-27 13:52:36,0.0
21240,-2544,7332,14620,3226,1792,2025-01-27 13:52:36,0.0
22808,-3164,5156,13829,1333,2214,2025-01-27 13:52:36,0.0
21736,-1776,3656,12490,-2411,402,2025-01-27 13:52:36,0.0
19948,-392,4368,12626,-4620,-1532,2025-01-27 13:52:36,0.0
18064,1552,4660,13306,-4037,-2469,2025-01-27 13:52:36,0.0
17088,2856,5544,14261,-1776,-2874,2025-01-27 13:52:36,0.0
16388,3356,6112,16052,1515,-2472,2025-01-27 13:52:36,0.0
16968,2684,5908,16982,2628,-1508,2025-01-27 13:52:36,0.0
18620,1452,5032,17136,2833,-1198,2025-01-27 13:52:36,0.0
18828,724,4328,17076,2784,-1097,2025-01-27 13:52:36,0.0
18764,240,4828,17563,2923,-570,2025-01-27 13:52:36,0.0
18456,28,5068,18745,3536,160,2025-01-27 13:52:36,0.0
18944,724,4028,19251,4112,297,2025-01-27 13:52:36,0.0
18908,1136,3484,19246,3871,-4,2025-01-27 13:52:37,0.0
18720,1056,3352,19215,2966,-129,2025-01-27 13:52:37,0.0
18460,548,3648,19176,2032,24,2025-01-27 13:52:37,0.0
18956,-108,3400,19060,1364,127,2025-01-27 13:52:37,0.0
19144,-744,3336,18406,899,-6,2025-01-27 13:52:37,0.0
18904,-768,3556,17910,724,-155,2025-01-27 13:52:37,0.0
18204,-744,3420,17812,403,-115,2025-01-27 13:52:37,0.0
17416,-556,2668,17599,-217,170,2025-01-27 13:52:37,0.0
17080,-388,2064,17106,-490,269,2025-01-27 13:52:37,0.0
16564,-16,1892,16278,-358,369,2025-01-27 13:52:37,0.0
16860,308,2556,15337,421,413,2025-01-27 13:52:37,0.0
17180,432,2848,14280,1312,477,2025-01-27 13:52:37,0.0
17760,212,3196,13151,2181,788,2025-01-27 13:52:37,0.0
18168,-140,3156,12445,3019,1693,2025-01-27 13:52:37,0.0
18844,-228,2956,12136,3386,2797,2025-01-27 13:52:37,0.0
19712,276,2728,12055,2683,3524,2025-01-27 13:52:37,0.0
20424,1328,2424,11747,1093,3613,2025-01-27 13:52:37,0.0
20552,1884,2132,11573,-428,3189,2025-01-27 13:52:37,0.0
20448,1964,1548,11512,-1183,2776,2025-01-27 13:52:37,0.0
20056,1304,1280,11215,-1449,2246,2025-01-27 13:52:37,0.0
19108,704,996,10663,-1098,1603,2025-01-27 13:52:37,0.0
18000,108,988,9891,-362,1354,2025-01-27 13:52:37,0.0
17628,-100,1880,8927,1384,1224,2025-01-27 13:52:37,0.0
18340,644,3232,7785,3679,936,2025-01-27 13:52:37,0.0
20384,1892,3160,6698,5650,335,2025-01-27 13:52:37,0.0
21796,1960,2684,6119,6192,-238,2025-01-27 13:52:37,0.0
22964,2000,1288,6159,5117,-766,2025-01-27 13:52:37,0.0
22692,2720,-240,5886,2359,-921,2025-01-27 13:52:37,0.0
20592,3372,840,5325,77,182,2025-01-27 13:52:37,0.0
18412,3752,4080,5463,-673,3151,2025-01-27 13:52:37,0.0
20072,2704,5996,6170,345,5439,2025-01-27 13:52:37,0.0
21432,2360,6984,6118,2207,4667,2025-01-27 13:52:37,0.0
19680,1908,8172,6598,2264,4304,2025-01-27 13:52:37,0.0
17600,1884,8964,8041,666,4968,2025-01-27 13:52:37,0.0
16184,1864,8444,9455,-1882,5960,2025-01-27 13:52:37,0.0
16108,556,6260,9809,-2938,6105,2025-01-27 13:52:37,0.0
14888,-1344,3744,9015,-2005,6045,2025-01-27 13:52:37,0.0
14108,-4032,3832,8133,-907,7039,2025-01-27 13:52:37,0.0
15740,-6036,4712,7996,941,7917,2025-01-27 13:52:37,0.0
17812,-6572,5004,7773,2483,7714,2025-01-27 13:52:37,0.0
19160,-6120,5632,7098,2901,6547,2025-01-27 13:52:37,0.0
19092,-4392,4788,6069,3088,5289,2025-01-27 13:52:37,0.0
18676,-2836,3412,5109,2875,4532,2025-01-27 13:52:37,0.0
18164,-2036,3184,4747,1383,4353,2025-01-27 13:52:37,0.0
16940,-1492,3680,5126,-1068,4164,2025-01-27 13:52:37,0.0
16344,-1636,3604,5260,-1844,3795,2025-01-27 13:52:37,0.0
15856,-2016,3944,5038,-1305,3428,2025-01-27 13:52:37,0.0
16064,-2380,4868,5197,203,3111,2025-01-27 13:52:37,0.0
18020,-2700,3628,5502,1535,3041,2025-01-27 13:52:37,0.0
18880,-2184,2792,5385,2316,2957,2025-01-27 13:52:37,0.0
19412,-2196,1760,4999,1655,2968,2025-01-27 13:52:37,0.0
19636,-2192,744,4470,-17,2564,2025-01-27 13:52:37,0.0
19168,-2716,304,3621,-1093,2400,2025-01-27 13:52:37,0.0
18508,-3100,960,3133,-1618,1852,2025-01-27 13:52:37,0.0
18172,-3300,1780,2990,-2623,1280,2025-01-27 13:52:37,0.0
17936,-3036,1528,2902,-3221,612,2025-01-27 13:52:37,0.0
17852,-3808,1952,3065,-3614,61,2025-01-27 13:52:37,0.0
18036,-4344,3496,3387,-3229,25,2025-01-27 13:52:37,0.0
18552,-4416,3492,3676,-1752,-94,2025-01-27 13:52:37,0.0
18268,-3564,3120,3960,-658,555,2025-01-27 13:52:37,0.0
20220,-2780,2036,4749,463,1413,2025-01-27 13:52:37,0.0
20628,-4304,360,4935,963,2203,2025-01-27 13:52:37,0.0
21576,-7452,-404,3998,2085,2997,2025-01-27 13:52:37,0.0
23260,-8436,100,3564,2931,3015,2025-01-27 13:52:37,0.0
25432,-4608,-828,3831,1756,1561,2025-01-27 13:52:38,0.0
25152,-1432,680,3688,1535,807,2025-01-27 13:52:38,0.0
24428,-756,8108,4997,2431,3284,2025-01-27 13:52:38,0.0
23420,-2928,7572,6773,756,4730,2025-01-27 13:52:38,0.0
22640,-6780,3576,4286,-1647,5834,2025-01-27 13:52:38,0.0
26328,-8896,4704,926,-3049,3269,2025-01-27 13:52:38,0.0
26028,-6172,7988,-935,-5621,-3927,2025-01-27 13:52:38,0.0
20504,-4304,10440,-2945,-7125,-6250,2025-01-27 13:52:38,0.0
15152,-3960,13996,-3618,-6696,-6410,2025-01-27 13:52:38,
11312,-3488,13200,-1960,-5077,-4651,2025-01-27 13:52:38,0.0
12560,-1596,8248,-799,-768,-3107,2025-01-27 13:52:38,0.0
15860,596,3728,-1549,4293,-3433,2025-01-27 13:52:38,0.0
19624,748,3024,-2948,8342,-4683,2025-01-27 13:52:38,0.0
21828,-1376,4912,-3375,6347,-5571,2025-01-27 13:52:38,0.0
22096,-1948,5500,-3001,1865,-5657,2025-01-27 13:52:38,0.0
20404,-1608,5720,-2724,-2489,-5775,2025-01-27 13:52:38,0.0
18988,-1112,4248,-2379,-4309,-6259,2025-01-27 13:52:38,0.0
14464,-312,6272,-1550,-4673,-6810,2025-01-27 13:52:38,0.0
12572,-56,4908,-1612,-4781,-6705,2025-01-27 13:52:38,0.0
11240,348,3684,-1980,-4186,-5911,2025-01-27 13:52:38,0.0
12264,492,2764,-2309,-2248,-5101,2025-01-27 13:52:38,0.0
14552,688,1692,-2900,411,-4921,2025-01-27 13:52:38,0.0
15860,292,2620,-3492,1097,-5044,2025-01-27 13:52:38,0.0
15200,476,3600,-3400,-336,-4276,2025-01-27 13:52:38,0.0
14324,720,3560,-2583,-1862,-2554,2025-01-27 13:52:38,0.0
14268,568,2648,-1644,-2312,-826,2025-01-27 13:52:38,0.0
14896,236,1072,-1151,-2414,204,2025-01-27 13:52:38,0.0
15500,-240,-40,-1354,-3099,952,2025-01-27 13:52:38,0.0
15852,-492,76,-2006,-3606,1318,2025-01-27 13:52:38,0.0
16172,-708,244,-2734,-2931,1504,2025-01-27 13:52:38,0.0
16304,-372,-468,-3676,-2023,1729,2025-01-27 13:52:38,0.0
17856,708,-100,-4879,-1072,1732,2025-01-27 13:52:38,0.0
20524,1316,788,-5657,493,1100,2025-01-27 13:52:38,0.0
23104,508,1984,-6043,2932,439,2025-01-27 13:52:38,0.0
25172,-1084,2464,-5715,4786,-366,2025-01-27 13:52:38,0.0
29944,216,-128,-5451,5490,-3201,2025-01-27 13:52:38,0.0
29948,2012,260,-2896,6684,-7808,2025-01-27 13:52:38,0.0
25732,4052,-768,-1439,5415,-9013,2025-01-27 13:52:38,0.0
23468,4052,2636,-2143,3739,-7370,2025-01-27 13:52:38,0.0
22992,3372,3944,-3138,1354,-3629,2025-01-27 13:52:38,0.0
26824,3948,7424,-2904,980,-3429,2025-01-27 13:52:38,0.0
29468,4080,13140,-584,1176,-5795,2025-01-27 13:52:38,0.0
24960,5600,18292,4976,-2087,-8730,2025-01-27 13:52:38,0.0
15792,6880,13892,8464,-8007,-5962,2025-01-27 13:52:38,0.0
9460,1224,11780,10392,-9251,1004,2025-01-27 13:52:38,0.0
11376,-2196,7092,8385,-8092,5931,2025-01-27 13:52:38,0.0
16320,-4092,5320,3445,-2696,6583,2025-01-27 13:52:38,0.0
17536,-4792,6152,1502,3963,5675,2025-01-27 13:52:38,0.0
17820,-2984,7024,2145,9077,5575,2025-01-27 13:52:38,0.0
16628,1420,6624,3690,10391,6959,2025-01-27 13:52:38,0.0
17724,5204,5656,4674,9196,8496,2025-01-27 13:52:38,0.0
18196,4604,6076,5990,5134,8450,2025-01-27 13:52:38,0.0
15832,204,6392,7289,-574,8429,2025-01-27 13:52:38,0.0
14112,-3096,4756,7737,-5959,8522,2025-01-27 13:52:38,0.0
12580,-5412,3236,6497,-8259,7001,2025-01-27 13:52:38,0.0
12088,-5728,2944,4867,-6278,5088,2025-01-27 13:52:38,0.0
12344,-4560,3984,4340,-584,3713,2025-01-27 13:52:38,0.0
12220,-3824,5212,4679,4286,3842,2025-01-27 13:52:38,0.0
14444,-3132,4236,5563,6154,4067,2025-01-27 13:52:38,0.0
17160,-2148,-92,5187,4854,3671,2025-01-27 13:52:38,0.0
18708,-856,-1180,3749,1679,2032,2025-01-27 13:52:39,0.0
18952,-608,112,2305,-485,-382,2025-01-27 13:52:39,0.0
18224,-792,2140,1630,-993,-2203,2025-01-27 13:52:39,0.0
16448,-768,3832,2140,11,-2875,2025-01-27 13:52:39,0.0
16120,-1472,2604,3803,611,-2387,2025-01-27 13:52:39,0.0
17392,-1500,936,4857,-155,-1522,2025-01-27 13:52:39,0.0
17776,-1820,1824,4827,-1260,-833,2025-01-27 13:52:39,0.0
19508,-2268,2432,4733,-1128,83,2025-01-27 13:52:39,0.0
22432,-1052,2376,4731,2354,814,2025-01-27 13:52:39,0.0
22560,-1704,712,4803,5686,2327,2025-01-27 13:52:39,0.0
20160,-5624,-644,4111,4630,7848,2025-01-27 13:52:39,0.0
23896,-10380,-88,4217,1109,11161,2025-01-27 13:52:39,0.0
31248,-9620,-2052,4429,97,7160,2025-01-27 13:52:39,0.0
28868,-4032,1376,1463,3417,3225,2025-01-27 13:52:39,0.0
25724,-800,7132,933,4305,5196,2025-01-27 13:52:39,0.0
23188,-3944,4880,898,238,7671,2025-01-27 13:52:39,0.0
24188,-8816,6272,-1422,-7040,9444,2025-01-27 13:52:39,0.0
30052,-9236,8412,-2107,-9176,4484,2025-01-27 13:52:39,0.0
26196,-3688,8804,-4542,-10757,-2525,2025-01-27 13:52:39,0.0
18124,-1896,15400,-8073,-11856,-5918,2025-01-27 13:52:39,0.0
13284,752,16896,-5869,-9394,-4275,2025-01-27 13:52:39,0.0
13896,3284,12456,-1588,-4686,-1758,2025-01-27 13:52:39,0.0
18444,3752,5700,991,3176,-2557,2025-01-27 13:52:39,0.0
21396,260,2356,736,10938,-4549,2025-01-27 13:52:39,0.0
22176,-4368,2376,-1145,12731,-6274,2025-01-27 13:52:39,0.0
20308,-7280,3688,-2253,6714,-6504,2025-01-27 13:52:39,0.0
18648,-5632,4936,-3013,428,-6209,2025-01-27 13:52:39,0.0
16088,-2624,4884,-3588,-4756,-7297,2025-01-27 13:52:39,0.0
12640,-196,3632,-4356,-7937,-8275,2025-01-27 13:52:39,0.0
9356,1608,3520,-5537,-10156,-8260,2025-01-27 13:52:39,0.0
7748,2736,4704,-5792,-9285,-7612,2025-01-27 13:52:39,0.0
7640,2928,4104,-5526,-5584,-6141,2025-01-27 13:52:39,0.0
8908,2188,3784,-5192,1560,-3863,2025-01-27 13:52:39,0.0
11948,648,4160,-4864,5454,-2817,2025-01-27 13:52:39,0.0
15496,-424,2104,-4309,6083,-3519,2025-01-27 13:52:39,0.0
15756,-680,88,-3927,4524,-3376,2025-01-27 13:52:39,0.0
15824,-104,-396,-3455,2078,-1837,2025-01-27 13:52:39,0.0
16016,232,-432,-2752,74,221,2025-01-27 13:52:39,0.0
16280,-820,-1168,-2673,-709,1555,2025-01-27 13:52:39,0.0
16036,-1868,-2368,-4703,-785,2258,2025-01-27 13:52:39,0.0
17192,-2536,-1828,-7227,325,1452,2025-01-27 13:52:39,0.0
17512,-1168,-376,-8332,1744,1117,2025-01-27 13:52:39,0.0
19464,32,1772,-8168,3445,1770,2025-01-27 13:52:39,0.0
24544,988,2344,-7854,5882,939,2025-01-27 13:52:39,0.0
31628,1752,208,-8367,7727,-3110,2025-01-27 13:52:39,0.0
32767,2380,2788,-4732,12713,-12172,2025-01-27 13:52:39,0.0
28384,5360,148,-1485,11150,-16134,2025-01-27 13:52:39,0.0
20804,7288,2852,-2104,4182,-11616,2025-01-27 13:52:39,0.0
20020,2360,7836,-2318,-3870,-3530,2025-01-27 13:52:39,
29248,3516,10168,-1456,-5195,-4042,2025-01-27 13:52:39,0.0
28248,4536,15472,27,-5351,-7598,2025-01-27 13:52:39,0.0
21708,2988,16644,3864,-7834,-8975,2025-01-27 13:52:39,0.0
14312,1712,11516,6471,-12787,-4639,2025-01-27 13:52:39,0.0
12052,-2324,8268,8504,-11072,1188,2025-01-27 13:52:39,0.0
13572,-4236,4644,6553,-7113,6069,2025-01-27 13:52:39,0.0
17736,-4564,4032,1975,-625,6926,2025-01-27 13:52:39,0.0
17468,-4388,5140,-377,4724,6522,2025-01-27 13:52:39,0.0
17852,-1508,5580,-40,8813,6868,2025-01-27 13:52:39,0.0
17912,2608,4820,953,10216,8427,2025-01-27 13:52:39,0.0
19100,5272,6044,2299,7914,8935,2025-01-27 13:52:39,0.0
19212,4580,7312,4489,3076,7474,2025-01-27 13:52:39,0.0
16228,1776,6528,5657,-3024,6451,2025-01-27 13:52:39,0.0
12164,-1940,5940,6289,-9365,6317,2025-01-27 13:52:40,0.0
11412,-4840,1852,5874,-11272,5457,2025-01-27 13:52:40,0.0
9896,-5940,1452,3840,-8966,4625,2025-01-27 13:52:40,0.0
10420,-5144,4688,3399,-832,3467,2025-01-27 13:52:40,0.0
11376,-3404,5896,4523,6601,3660,2025-01-27 13:52:40,0.0
13140,-2120,4512,6018,9981,4060,2025-01-27 13:52:40,0.0
16444,-740,-888,6123,9038,4405,2025-01-27 13:52:40,0.0
18624,0,-1920,4764,5423,3115,2025-01-27 13:52:40,0.0
19236,-764,-1508,2863,1572,365,2025-01-27 13:52:40,0.0
18076,-2124,372,2143,136,-1828,2025-01-27 13:52:40,0.0
16192,-1844,1408,2744,1125,-2906,2025-01-27 13:52:40,0.0
16412,-1788,2868,4612,2322,-2218,2025-01-27 13:52:40,0.0
18012,-1496,2700,5899,3578,-1340,2025-01-27 13:52:40,0.0
19412,-828,3576,5386,4783,320,2025-01-27 13:52:40,0.0
20480,-1332,4684,4544,5816,2365,2025-01-27 13:52:40,0.0
20444,-5804,1912,5081,6018,5315,2025-01-27 13:52:40,0.0
21956,-9848,-3268,5258,7352,10883,2025-01-27 13:52:40,0.0
28056,-10116,-5536,4251,7310,14056,2025-01-27 13:52:40,0.0
32767,-5492,-3028,1959,6234,8260,2025-01-27 13:52:40,0.0
30900,-1212,8816,819,3921,-897,2025-01-27 13:52:40,0.0
20360,-2372,15164,4826,-4500,3155,2025-01-27 13:52:40,0.0
21968,-7212,10316,3813,-8301,6961,2025-01-27 13:52:40,0.0
24256,-11480,11312,-849,-12900,6153,2025-01-27 13:52:40,0.0
23436,-5364,6464,-2192,-8340,-1285,2025-01-27 13:52:40,0.0
17620,-1880,7868,-6009,-10059,-3653,2025-01-27 13:52:40,0.0
16868,1184,11980,-6874,-7471,-3253,2025-01-27 13:52:40,0.0
16380,3200,14760,-4464,-2814,-1842,2025-01-27 13:52:40,0.0
20044,2608,11032,-984,2872,-2318,2025-01-27 13:52:40,0.0
22324,-1076,4864,-839,7873,-4549,2025-01-27 13:52:40,0.0
23076,-7268,1300,-3382,8394,-7029,2025-01-27 13:52:40,0.0
20860,-10864,2504,-5579,5473,-7715,2025-01-27 13:52:40,0.0
17576,-9228,3928,-6895,1816,-7053,2025-01-27 13:52:40,0.0
16028,-4596,4612,-8051,-2418,-6851,2025-01-27 13:52:40,0.0
14032,-40,4720,-9204,-6667,-7822,2025-01-27 13:52:40,0.0
11892,3240,4624,-9304,-8624,-8338,2025-01-27 13:52:40,0.0
9896,5212,5640,-8296,-9457,-8187,2025-01-27 13:52:40,0.0
8360,5844,5200,-6537,-7591,-6846,2025-01-27 13:52:40,0.0
8524,4076,4396,-5632,-2381,-4646,2025-01-27 13:52:40,0.0
10928,1192,4068,-4793,3249,-2216,2025-01-27 13:52:40,0.0
13764,-1000,2196,-4395,3882,-1570,2025-01-27 13:52:40,0.0
14124,-2412,536,-3887,1203,-852,2025-01-27 13:52:40,0.0
13880,-2264,516,-3356,-2007,915,2025-01-27 13:52:40,0.0
13548,-1364,1804,-2823,-3693,2496,2025-01-27 13:52:40,0.0
14076,392,-300,-2339,-2462,3088,2025-01-27 13:52:40,0.0
15652,1036,-2228,-3204,878,2727,2025-01-27 13:52:40,0.0
17348,508,-1268,-4414,4037,2190,2025-01-27 13:52:40,0.0
21328,-900,-760,-5005,6825,1780,2025-01-27 13:52:40,0.0
24912,-2760,240,-5766,9380,1187,2025-01-27 13:52:40,0.0
30928,-4492,-2292,-7098,9472,-1814,2025-01-27 13:52:40,0.0
32767,-4032,-620,-7217,10031,-8385,2025-01-27 13:52:40,0.0
30852,-44,324,-4868,8461,-13515,2025-01-27 13:52:40,0.0
22544,3732,-48,-5047,2630,-12594,2025-01-27 13:52:40,0.0
20100,2244,4740,-6816,-2106,-8069,2025-01-27 13:52:40,0.0
25612,1888,8856,-6761,-221,-4624,2025-01-27 13:52:40,0.0
30832,5708,16244,-3890,5322,-7937,2025-01-27 13:52:40,0.0
29632,8044,22052,2069,7436,-12665,2025-01-27 13:52:40,0.0
18916,10376,20400,8390,1338,-12967,2025-01-27 13:52:40,0.0
10632,6904,12976,9280,-9441,-3624,2025-01-27 13:52:40,0.0
14232,-2040,8360,9956,-15098,4868,2025-01-27 13:52:40,0.0
17508,-4896,2224,5597,-13596,7495,2025-01-27 13:52:40,0.0
17128,-7236,6056,1609,-8321,7121,2025-01-27 13:52:41,0.0
15124,-6856,9688,2222,-2197,6719,2025-01-27 13:52:41,0.0
15364,-2864,5504,3043,5428,6746,2025-01-27 13:52:41,0.0
15364,2368,3208,1131,8954,8127,2025-01-27 13:52:41,0.0
19700,4736,7072,1573,8896,7134,2025-01-27 13:52:41,0.0
18296,4224,7532,4851,5389,5023,2025-01-27 13:52:41,0.0
14928,1348,4880,5402,-557,6042,2025-01-27 13:52:41,0.0
12812,-888,4692,5483,-7949,7075,2025-01-27 13:52:41,0.0
13100,-3672,2808,5549,-12471,6602,2025-01-27 13:52:41,0.0
11580,-4840,2432,5428,-9335,4928,2025-01-27 13:52:41,0.0
11212,-4568,2696,5000,-1592,3556,2025-01-27 13:52:41,0.0
11768,-3584,4796,5652,5574,3264,2025-01-27 13:52:41,0.0
13304,-2988,3968,6446,8552,3121,2025-01-27 13:52:41,0.0
15728,-2112,1044,6162,7194,3018,2025-01-27 13:52:41,0.0
18140,-1732,-772,5032,3706,2057,2025-01-27 13:52:41,0.0
18828,-1528,-1484,3884,818,137,2025-01-27 13:52:41,0.0
18472,-1920,-708,3185,-779,-1870,2025-01-27 13:52:41,0.0
15932,-1088,1180,3418,-1185,-2967,2025-01-27 13:52:41,0.0
16340,-1264,2088,4887,-942,-2802,2025-01-27 13:52:41,0.0
17008,-596,3356,5644,912,-2289,2025-01-27 13:52:41,0.0
18376,-224,5188,5814,4412,-1047,2025-01-27 13:52:41,0.0
20472,-1160,4496,6337,7936,576,2025-01-27 13:52:41,0.0
20392,-4308,1208,6693,10111,3680,2025-01-27 13:52:41,0.0
22048,-7544,-3424,6274,10596,8845,2025-01-27 13:52:41,0.0
26128,-9864,-3692,5250,9030,13051,2025-01-27 13:52:41,0.0
32767,-9620,808,3033,4672,8949,2025-01-27 13:52:41,0.0
31228,-6920,10444,518,2981,2599,2025-01-27 13:52:41,
22540,-4376,11692,432,-3885,3447,2025-01-27 13:52:41,0.0
22360,-8556,8540,-1219,-8450,6378,2025-01-27 13:52:41,0.0
22904,-10404,8628,-5439,-10973,7074,2025-01-27 13:52:41,0.0
26268,-7716,8532,-5821,-12198,3548,2025-01-27 13:52:41,0.0
20300,-992,5504,-7319,-10094,-96,2025-01-27 13:52:41,0.0
19928,1392,9700,-9558,-7845,-1650,2025-01-27 13:52:41,0.0
19164,2680,13472,-8423,-3741,-3648,2025-01-27 13:52:41,0.0
17844,2828,11752,-4650,141,-4587,2025-01-27 13:52:41,0.0
20008,-104,7420,-2861,5818,-5198,2025-01-27 13:52:41,0.0
21276,-4888,4228,-2660,9496,-6541,2025-01-27 13:52:41,0.0
19360,-8144,2768,-3935,7640,-6434,2025-01-27 13:52:41,0.0
18524,-7668,2656,-6156,4249,-5759,2025-01-27 13:52:41,0.0
18192,-4536,3008,-8125,-797,-6131,2025-01-27 13:52:41,0.0
15336,-920,4852,-9603,-6493,-7712,2025-01-27 13:52:41,0.0
13056,1284,4852,-9631,-10711,-8864,2025-01-27 13:52:41,0.0
8844,2600,4984,-9111,-12435,-8852,2025-01-27 13:52:41,0.0
6776,2736,3732,-8888,-10491,-7547,2025-01-27 13:52:41,0.0
6160,2224,3420,-8347,-3177,-4495,2025-01-27 13:52:41,0.0
9044,2204,3640,-7529,4918,-1979,2025-01-27 13:52:41,0.0
14076,1208,2948,-6761,8072,-1519,2025-01-27 13:52:41,0.0
16228,340,2036,-5968,6674,-1724,2025-01-27 13:52:41,0.0
15736,328,1772,-4699,2045,-209,2025-01-27 13:52:41,0.0
15084,1184,1184,-3708,-2593,2202,2025-01-27 13:52:41,0.0
15560,344,412,-3146,-3832,3269,2025-01-27 13:52:41,0.0
14968,-172,-1512,-3343,-2093,3303,2025-01-27 13:52:41,0.0
16488,-1788,-2012,-5048,799,3019,2025-01-27 13:52:41,0.0
18448,-2328,1140,-6204,3013,2594,2025-01-27 13:52:41,0.0
21380,-2240,2748,-6830,6038,2134,2025-01-27 13:52:41,0.0
24884,-3100,1988,-7345,7952,1560,2025-01-27 13:52:41,0.0
32767,-1872,-3236,-8742,8405,-2568,2025-01-27 13:52:41,0.0
32767,-220,-776,-6530,10791,-11036,2025-01-27 13:52:41,0.0
31352,3388,1076,-3021,9842,-15588,2025-01-27 13:52:41,0.0
22828,6784,2996,-3112,3391,-12864,2025-01-27 13:52:41,0.0
18012,2624,8588,-4521,-3808,-6572,2025-01-27 13:52:41,0.0
24652,1040,6772,-4861,-6318,-3931,2025-01-27 13:52:41,0.0
25372,5464,12560,-3269,-5364,-6828,2025-01-27 13:52:42,0.0
24016,6556,14828,516,-4087,-8839,2025-01-27 13:52:42,0.0
16792,6244,11888,2945,-5134,-7018,2025-01-27 13:52:42,0.0
15440,1516,11340,6272,-3601,-2060,2025-01-27 13:52:42,0.0
16708,-2388,10184,8686,-1962,1176,2025-01-27 13:52:42,0.0
19252,-3476,5836,5626,515,2935,2025-01-27 13:52:42,0.0
19896,-3784,7148,2127,3604,2776,2025-01-27 13:52:42,0.0
18104,-3036,7932,1826,5140,3345,2025-01-27 13:52:42,0.0
18080,-124,6536,3055,5744,5155,2025-01-27 13:52:42,0.0
18040,2812,6068,5143,6217,7421,2025-01-27 13:52:42,0.0
18488,4016,5604,6108,3626,9055,2025-01-27 13:52:42,0.0
16756,3292,7712,7553,-1167,9279,2025-01-27 13:52:42,0.0
15516,824,7148,9226,-6272,8419,2025-01-27 13:52:42,0.0
13660,-2268,5560,10188,-9582,6476,2025-01-27 13:52:42,0.0
11156,-3684,2092,8956,-7942,4698,2025-01-27 13:52:42,0.0
8916,-4776,1556,7085,-6017,4242,2025-01-27 13:52:42,0.0
9748,-5072,3124,6320,-988,3841,2025-01-27 13:52:42,0.0
10828,-4056,4464,6720,6069,3112,2025-01-27 13:52:42,0.0
14100,-3632,3404,7477,9332,3028,2025-01-27 13:52:42,0.0
15280,-2776,1320,7216,8571,3034,2025-01-27 13:52:42,0.0
17968,-1584,-904,6063,4333,2274,2025-01-27 13:52:42,0.0
21856,-2204,8424,-6464,-9138,-2642,2025-01-27 13:52:42,0.0
18660,12,11628,-8054,-9573,-4952,2025-01-27 13:52:42,0.0
15428,1804,14048,-7456,-7046,-4990,2025-01-27 13:52:42,0.0
14224,3456,13912,-4921,-2494,-3614,2025-01-27 13:52:42,0.0
18076,3112,8128,-2175,4629,-3058,2025-01-27 13:52:42,0.0
20796,-700,4712,-1018,10261,-4533,2025-01-27 13:52:42,0.0
21676,-5456,2528,-2398,9541,-5914,2025-01-27 13:52:42,0.0
21164,-7596,3020,-4550,6291,-6457,2025-01-27 13:52:43,0.0
19312,-6360,4656,-5690,2771,-6659,2025-01-27 13:52:43,0.0
17208,-3100,4472,-6232,-1652,-7435,2025-01-27 13:52:43,0.0
14540,-212,4120,-7009,-6434,-7954,2025-01-27 13:52:43,0.0
11640,1968,3568,-7573,-9197,-7921,2025-01-27 13:52:43,0.0
9760,2860,3636,-7850,-10277,-7292,2025-01-27 13:52:43,0.0
9016,3080,4180,-7534,-8624,-6338,2025-01-27 13:52:43,0.0
8584,3112,3740,-7250,-4159,-4705,2025-01-27 13:52:43,0.0
9628,2488,3392,-6841,1663,-2425,2025-01-27 13:52:43,0.0
12572,-120,4648,-6583,-4394,-7921,2025-01-27 13:52:45,0.0
10692,1828,3900,-6993,-7201,-7969,2025-01-27 13:52:45,0.0
9880,3060,3188,-7085,-7752,-7153,2025-01-27 13:52:45,0.0
8836,3932,2960,-6987,-5495,-5575,2025-01-27 13:52:45,0.0
9468,3492,2432,-6504,-1311,-3593,2025-01-27 13:52:45,0.0
11372,1964,3300,-5598,2533,-2133,2025-01-27 13:52:45,0.0
14120,348,2336,-4506,3585,-1542,2025-01-27 13:52:45,0.0
14744,-556,1100,-3451,2534,-785,2025-01-27 13:52:45,0.0
27472,7184,15464,-1966,-5278,-6774,2025-01-27 13:52:45,0.0
11964,-4920,1048,5108,-10613,2904,2025-01-27 13:52:45,0.0
9732,-4188,1812,3236,-4202,2025,2025-01-27 13:52:45,0.0
9344,-3140,6012,3503,3227,2220,2025-01-27 13:52:45,0.0
12584,-2272,6828,5482,8177,2674,2025-01-27 13:52:45,0.0
15208,-1348,2116,6554,9901,2604,2025-01-27 13:52:45,0.0
17184,-816,-680,5841,7804,2407,2025-01-27 13:52:45,0.0
18500,-620,-1588,4333,3374,795,2025-01-27 13:52:45,0.0
18412,-1912,-616,2960,336,-1749,2025-01-27 13:52:45,0.0
16656,-2472,1332,2868,134,-3230,2025-01-27 13:52:45,0.0
15608,-2176,2584,3734,1376,-2913,2025-01-27 13:52:45,0.0
23332,-11288,7976,-1346,-5732,9632,2025-01-27 13:52:45,0.0
26960,-13308,10464,-2853,-11361,6845,2025-01-27 13:52:45,0.0
24240,-4576,5340,-4324,-10386,-867,2025-01-27 13:52:45,0.0
18988,-636,7920,-7636,-11755,-3134,2025-01-27 13:52:45,0.0
17496,1692,11436,-7771,-10281,-3859,2025-01-27 13:52:46,0.0
16320,3096,12492,-6063,-5802,-3697,2025-01-27 13:52:46,0.0
17684,2584,9352,-4005,106,-3641,2025-01-27 13:52:46,0.0
18876,-364,6012,-2873,6017,-4823,2025-01-27 13:52:46,0.0
19712,-4804,3256,-3042,7710,-6205,2025-01-27 13:52:46,
18804,-7776,1864,-4382,5590,-6439,2025-01-27 13:52:46,0.0
17380,-6940,3496,-6029,2750,-5922,2025-01-27 13:52:46,0.0
16724,-3040,3992,-7032,415,-6134,2025-01-27 13:52:46,0.0
14208,516,4660,-7785,-1670,-7067,2025-01-27 13:52:46,0.0
12168,3000,5540,-7977,-3580,-7406,2025-01-27 13:52:46,0.0
11036,4520,5392,-7046,-5144,-7299,2025-01-27 13:52:46,0.0
10012,4664,5028,-5695,-5125,-6576,2025-01-27 13:52:46,0.0
10780,3440,2740,-5146,-1575,-4976,2025-01-27 13:52:46,0.0
13408,900,2920,-5112,2158,-3777,2025-01-27 13:52:46,0.0
15760,-748,2812,-4966,2714,-3705,2025-01-27 13:52:46,0.0
15688,-1484,1996,-4709,596,-3338,2025-01-27 13:52:46,0.0
14260,-1076,1888,-4064,-2587,-1644,2025-01-27 13:52:46,0.0
13408,92,1132,-3166,-4937,663,2025-01-27 13:52:46,0.0
13976,188,-380,-3259,-5492,1966,2025-01-27 13:52:46,0.0
13828,-476,-636,-3880,-3352,2105,2025-01-27 13:52:46,0.0
14192,-1656,-1440,-4592,422,1979,2025-01-27 13:52:46,0.0
19068,-1296,-1760,-7219,4000,1917,2025-01-27 13:52:46,0.0
23032,-1012,24,-8380,5764,1106,2025-01-27 13:52:46,0.0
26140,-1604,684,-9036,7490,-179,2025-01-27 13:52:46,0.0
31108,-1872,-736,-9377,7919,-3025,2025-01-27 13:52:46,0.0
32767,-1520,1400,-7254,9802,-8494,2025-01-27 13:52:46,0.0
28560,992,1244,-4279,8462,-11846,2025-01-27 13:52:47,0.0
23752,4172,2008,-4706,3681,-10313,2025-01-27 13:52:47,0.0
21156,1424,5420,-6829,-2304,-6636,2025-01-27 13:52:49,0.0
28448,448,6520,-8245,-4140,-5045,2025-01-27 13:52:49,0.0
30468,3152,13068,-7136,-1851,-8661,2025-01-27 13:52:49,0.0
29316,4668,19188,-3111,-609,-12302,2025-01-27 13:52:49,0.0
18188,-3756,-1588,-6572,6340,1973,2025-01-27 13:52:49,0.0
20972,-3444,-572,-8205,8379,1713,2025-01-27 13:52:49,0.0
25788,-2928,-932,-9257,9686,929,2025-01-27 13:52:49,0.0
18448,-1184,2044,5005,1131,-2215,2025-01-27 13:52:49,0.0
18848,-1044,3032,5502,879,-1177,2025-01-27 13:52:49,0.0
9628,3648,3916,-5167,-7923,-5105,2025-01-27 13:52:49,0.0
9748,2720,2792,-5338,-3356,-3950,2025-01-27 13:52:49,0.0
11072,784,3584,-5086,2019,-2872,2025-01-27 13:52:49,0.0
13044,-224,3108,-4581,3859,-2858,2025-01-27 13:52:49,0.0
13236,-512,2540,-3879,2827,-2568,2025-01-27 13:52:49,0.0
13632,-392,1652,-3118,1416,-1041,2025-01-27 13:52:50,0.0
14572,-112,592,-2562,1381,859,2025-01-27 13:52:50,0.0
16484,-1132,-868,-2488,2357,1826,2025-01-27 13:52:50,0.0
17236,-1356,-2316,-2805,2527,2169,2025-01-27 13:52:50,0.0
20444,-908,872,-7182,2546,2528,2025-01-27 13:52:50,0.0
22216,-728,2876,-7449,4586,1943,2025-01-27 13:52:50,0.0
24240,-1904,3756,-7197,5712,1592,2025-01-27 13:52:50,0.0
29156,-1736,32,-8204,4380,-522,2025-01-27 13:52:50,0.0
32767,-864,2068,-7504,5800,-7440,2025-01-27 13:52:50,0.0
11640,-4124,1580,5730,-10042,3777,2025-01-27 13:52:50,0.0
9116,-4560,1736,3999,-5985,3376,2025-01-27 13:52:50,0.0
9624,-3900,4448,3889,846,3128,2025-01-27 13:52:50,0.0
10628,-3244,6912,5162,6145,3392,2025-01-27 13:52:50,0.0
12972,-2444,3460,6405,8318,3648,2025-01-27 13:52:50,0.0
15236,-2080,-88,5667,5993,3570,2025-01-27 13:52:50,0.0
17320,-1444,-1008,4003,2815,1898,2025-01-27 13:52:50,0.0
17704,-1992,552,2529,1605,-506,2025-01-27 13:52:50,0.0
18036,-1744,2116,2343,2770,-2339,2025-01-27 13:52:50,0.0
17432,-1552,2924,3369,4019,-2506,2025-01-27 13:52:50,0.0
18760,-1448,2120,5294,4677,-2029,2025-01-27 13:52:50,0.0
19756,-1624,1228,5618,3904,-940,2025-01-27 13:52:50,0.0
21520,-1476,2128,4901,3430,513,2025-01-27 13:52:50,0.0
22996,-1488,2280,4367,2719,1702,2025-01-27 13:52:50,0.0
21840,-5484,648,4253,1544,4503,2025-01-27 13:52:50,0.0
21772,-9688,-456,4029,975,9064,2025-01-27 13:52:50,0.0
26700,-10944,-44,3969,-218,10318,2025-01-27 13:52:50,0.0
32080,-5416,1484,1508,3580,6476,2025-01-27 13:52:50,0.0
27908,-1124,8904,-988,4639,3328,2025-01-27 13:52:52,0.0
22372,-4352,10416,1288,-553,6146,2025-01-27 13:52:52,0.0
22996,-7388,7772,-328,-6729,9314,2025-01-27 13:52:52,0.0
28204,-10540,6732,-3034,-8482,6855,2025-01-27 13:52:52,0.0
27456,-6672,7336,-5406,-7967,845,2025-01-27 13:52:52,0.0
23176,-2540,10944,-7449,-10092,-2896,2025-01-27 13:52:52,0.0
20288,4,14440,-6961,-10318,-5649,2025-01-27 13:52:52,0.0
14520,196,1856,-3638,615,-1228,2025-01-27 13:52:52,0.0
13780,444,948,-2197,-1432,523,2025-01-27 13:52:52,0.0
21608,2368,2952,-5510,1171,-10413,2025-01-27 13:52:52,0.0
20296,320,7236,-5893,-3941,-5887,2025-01-27 13:52:52,0.0
23928,4016,10332,-3432,-2155,-4681,2025-01-27 13:52:52,0.0
24340,6992,14016,427,946,-5459,2025-01-27 13:52:52,0.0
23668,8648,12764,3641,664,-6529,2025-01-27 13:52:52,0.0
19960,4916,11584,5954,-3425,-5591,2025-01-27 13:52:52,0.0
15876,-1724,8724,6734,-10927,-1925,2025-01-27 13:52:52,0.0
13180,-5148,7372,4873,-13461,2115,2025-01-27 13:52:52,0.0
14656,-6728,7040,2409,-10919,5171,2025-01-27 13:52:52,0.0
17028,-7004,5740,1324,-3515,5401,2025-01-27 13:52:52,0.0
17292,-4764,4580,527,3418,4618,2025-01-27 13:52:52,0.0
15956,-460,4696,-581,8827,4147,2025-01-27 13:52:52,0.0
16964,3928,6132,-229,10930,5259,2025-01-27 13:52:52,0.0
19508,5500,7564,2566,10762,5393,2025-01-27 13:52:52,0.0
18508,4368,6336,5223,7437,5469,2025-01-27 13:52:52,0.0
17108,1340,4976,5605,905,6611,2025-01-27 13:52:52,0.0
12248,-4636,1800,5750,-3036,1822,2025-01-27 13:52:52,0.0
11412,-3660,3856,4930,3823,2070,2025-01-27 13:52:52,0.0
13372,-3192,3900,5316,6451,2028,2025-01-27 13:52:52,0.0
15080,-2804,1092,5099,6067,2103,2025-01-27 13:52:52,0.0
16920,-2916,64,4150,4732,1547,2025-01-27 13:52:52,0.0
17760,-3160,-1060,2439,2755,144,2025-01-27 13:52:52,0.0
18020,-3528,-64,1401,1267,-1067,2025-01-27 13:52:52,0.0
17072,-2704,1228,1212,784,-1740,2025-01-27 13:52:52,0.0
17088,-1168,2248,1596,1530,-1797,2025-01-27 13:52:52,0.0
18576,-536,2956,2618,2181,-1723,2025-01-27 13:52:52,0.0
19252,-288,2956,3584,2493,-1436,2025-01-27 13:52:52,
19632,-256,3196,4023,2107,-583,2025-01-27 13:52:52,0.0
20132,-1216,3040,4092,1670,355,2025-01-27 13:52:52,0.0
19808,-3928,532,3796,1593,1957,2025-01-27 13:52:52,0.0
20428,-6668,-1572,3392,1672,4593,2025-01-27 13:52:52,0.0
22368,-8744,-1932,3741,1055,7036,2025-01-27 13:52:52,0.0
25772,-7300,-512,3307,1387,7360,2025-01-27 13:52:52,0.0
27940,-3180,3060,1600,3963,6552,2025-01-27 13:52:52,0.0
29172,-8288,5320,-644,-7405,3249,2025-01-27 13:52:52,0.0
26236,-7704,6076,-3280,-6653,-167,2025-01-27 13:52:52,0.0
22424,-3680,10336,-4762,-7620,-2711,2025-01-27 13:52:52,0.0
18160,-440,12252,-4218,-8485,-3971,2025-01-27 13:52:52,0.0
14328,2876,11572,-3174,-9048,-3541,2025-01-27 13:52:52,0.0
14212,4716,8232,-2304,-6542,-2977,2025-01-27 13:52:52,0.0
15660,3248,5152,-1286,719,-3202,2025-01-27 13:52:52,0.0
17600,-2308,3320,-1046,8405,-4201,2025-01-27 13:52:52,0.0
17684,-6516,3928,-2237,12510,-4352,2025-01-27 13:52:52,0.0
18244,-7408,3736,-2707,10894,-4126,2025-01-27 13:52:52,0.0
19380,-4612,2468,-3706,6014,-4930,2025-01-27 13:52:52,0.0
18424,-2008,3212,-5044,1869,-5504,2025-01-27 13:52:52,0.0
16136,240,5680,-5724,-2392,-5025,2025-01-27 13:52:52,0.0
15128,2260,5848,-5425,-6040,-4165,2025-01-27 13:52:52,0.0
14616,3496,4980,-4936,-7118,-3638,2025-01-27 13:52:53,0.0
14112,3436,3936,-4404,-4444,-3547,2025-01-27 13:52:53,0.0
13448,2060,4064,-3800,-850,-3196,2025-01-27 13:52:53,0.0
14212,836,3560,-3135,1429,-2470,2025-01-27 13:52:53,0.0
15704,172,3164,-2309,2372,-2041,2025-01-27 13:52:53,0.0
16732,-124,1860,-1663,1536,-1631,2025-01-27 13:52:53,0.0
16552,-44,1748,-1108,-625,-644,2025-01-27 13:52:53,0.0
15472,-532,2356,-511,-2999,872,2025-01-27 13:52:53,0.0
14896,-952,1644,-73,-4392,2146,2025-01-27 13:52:53,0.0
14868,-1104,-304,-448,-3765,2774,2025-01-27 13:52:53,0.0
13864,-1272,-252,-1177,-2079,3019,2025-01-27 13:52:53,0.0
14064,-1512,560,-1512,-247,3350,2025-01-27 13:52:53,0.0
14756,-704,2052,-1445,1605,3910,2025-01-27 13:52:53,0.0
17348,104,2044,-1835,3037,4640,2025-01-27 13:52:54,0.0
20492,84,2016,-2521,4124,4851,2025-01-27 13:52:54,0.0
27668,-3400,1544,-1582,6687,-3836,2025-01-27 13:52:54,0.0
23440,-2844,-840,-1961,3811,-5603,2025-01-27 13:52:54,0.0
21340,-1952,-1380,-2423,317,-6159,2025-01-27 13:52:54,0.0
19976,-2072,424,-3620,-600,-5561,2025-01-27 13:52:54,0.0
22068,-1708,3760,-4202,2207,-4088,2025-01-27 13:52:54,0.0
11556,7436,11844,4560,-9909,-5647,2025-01-27 13:52:54,0.0
10048,-252,10704,5637,-19547,2344,2025-01-27 13:52:54,0.0
19280,-2968,4268,13034,2553,3182,2025-01-27 13:52:54,0.0
19744,-4100,4392,13432,1197,4212,2025-01-27 13:52:54,0.0
19516,-4312,4396,13061,-632,4655,2025-01-27 13:52:54,0.0
19524,-4412,3840,12665,-2258,4862,2025-01-27 13:52:54,0.0
19328,-4300,3168,12598,-2818,5059,2025-01-27 13:52:54,0.0
18436,-4496,3964,12497,-2391,5268,2025-01-27 13:52:54,0.0
18488,-4300,3200,12165,-2718,5561,2025-01-27 13:52:54,0.0
17992,-3808,4036,11771,-3755,5770,2025-01-27 13:52:54,0.0
17384,-2648,4660,11580,-4605,5348,2025-01-27 13:52:54,0.0
17684,-1668,4472,11748,-3349,4477,2025-01-27 13:52:54,0.0
18056,-1144,4956,11992,-1195,3850,2025-01-27 13:52:54,0.0
18532,-1276,4692,12723,326,3367,2025-01-27 13:52:54,0.0
18912,-1996,2220,12984,-458,3286,2025-01-27 13:52:54,0.0
19320,-3152,136,12284,-2342,2946,2025-01-27 13:52:54,0.0
19420,-4408,224,11244,-4156,2421,2025-01-27 13:52:54,0.0
19560,-5104,712,10292,-4962,1974,2025-01-27 13:52:54,0.0
18524,-4736,688,9543,-4848,1876,2025-01-27 13:52:54,0.0
18044,-3916,428,9169,-4145,2093,2025-01-27 13:52:54,0.0
17464,-3332,648,8696,-3839,2150,2025-01-27 13:52:54,0.0
17096,-2736,680,7967,-3429,1715,2025-01-27 13:52:55,0.0
16756,-2660,1168,7618,-2631,1341,2025-01-27 13:52:55,0.0
16696,-2724,1160,7475,-1839,930,2025-01-27 13:52:55,0.0
16812,-2836,748,7319,-1324,586,2025-01-27 13:52:55,0.0
17272,-3416,856,7272,-1216,598,2025-01-27 13:52:55,0.0
17500,-4104,880,7251,-1277,1071,2025-01-27 13:52:55,0.0
18512,-4088,1156,7546,-1635,1256,2025-01-27 13:52:55,0.0
19344,-3320,1376,7904,-1522,1277,2025-01-27 13:52:55,0.0
19424,-2700,932,8440,-713,1199,2025-01-27 13:52:55,0.0
19676,-2732,996,8978,-822,1664,2025-01-27 13:52:55,0.0
20336,-2832,940,9479,-1722,2003,2025-01-27 13:52:55,0.0
20796,-2716,760,9857,-2532,1979,2025-01-27 13:52:55,0.0
21624,-2432,-320,10325,-2029,1914,2025-01-27 13:52:55,0.0
21232,-3496,-364,10801,-1560,1626,2025-01-27 13:52:55,0.0
20196,-4900,-512,11105,-851,866,2025-01-27 13:52:55,0.0
20456,-6164,-860,9791,290,1190,2025-01-27 13:52:55,0.0
20840,-6744,2632,8547,2446,3167,2025-01-27 13:52:55,0.0
21676,-8000,408,6739,3050,5678,2025-01-27 13:52:55,0.0
23028,-9164,-1824,3564,1603,6995,2025-01-27 13:52:55,0.0
27208,-9744,388,103,537,5625,2025-01-27 13:52:55,0.0
28328,-7672,6384,-1689,-1947,553,2025-01-27 13:52:55,0.0
23344,-4580,8488,-2472,-4683,-1530,2025-01-27 13:52:55,0.0
20764,-3308,9780,-2576,-6208,-3041,2025-01-27 13:52:55,0.0
17820,-2224,9704,-2204,-5892,-4414,2025-01-27 13:52:55,0.0
15336,212,8780,-1119,-4447,-4530,2025-01-27 13:52:55,0.0
15112,3404,6836,188,-2084,-3882,2025-01-27 13:52:55,0.0
17028,4804,5464,749,1622,-3544,2025-01-27 13:52:55,0.0
18296,2316,5756,1312,4371,-3750,2025-01-27 13:52:55,0.0
18852,-844,4700,2022,4605,-4043,2025-01-27 13:52:55,0.0
18968,-2928,4168,2107,3117,-4115,2025-01-27 13:52:55,0.0
18392,-3656,4112,1682,1226,-4373,2025-01-27 13:52:55,0.0
18184,-3860,3728,1270,73,-4442,2025-01-27 13:52:55,0.0
17180,-3576,3432,724,-653,-4278,2025-01-27 13:52:55,0.0
16796,-2624,2784,-178,-1196,-4443,2025-01-27 13:52:55,0.0
15864,-1188,2244,-979,-1583,-4830,2025-01-27 13:52:55,0.0
15524,212,1848,-1345,-1941,-4819,2025-01-27 13:52:55,0.0
14944,1344,2516,-1386,-1534,-4631,2025-01-27 13:52:55,0.0
15316,1508,2424,-1390,-543,-4117,2025-01-27 13:52:55,
16152,1084,2904,-1215,499,-3846,2025-01-27 13:52:55,0.0
17112,848,2640,-855,674,-3823,2025-01-27 13:52:55,0.0
16376,648,2520,-437,-417,-3350,2025-01-27 13:52:55,0.0
15772,140,1964,18,-1707,-2363,2025-01-27 13:52:55,0.0
15172,-256,1508,394,-2293,-1214,2025-01-27 13:52:55,0.0
15256,-540,532,579,-1944,-22,2025-01-27 13:52:55,0.0
15352,-444,-88,213,-1292,644,2025-01-27 13:52:55,0.0
15668,-344,-476,-330,-1186,1326,2025-01-27 13:52:55,0.0
16480,-560,-848,-1171,-1903,2045,2025-01-27 13:52:55,0.0
17412,-888,-284,-2204,-2247,2264,2025-01-27 13:52:55,0.0
18148,-1040,884,-3224,-1583,1746,2025-01-27 13:52:55,0.0
19424,-888,1084,-4490,-282,979,2025-01-27 13:52:55,0.0
21552,-944,576,-5933,1835,-309,2025-01-27 13:52:55,0.0
26296,-1380,280,-6354,5326,-2946,2025-01-27 13:52:55,0.0
27100,-720,-756,-5324,8088,-5894,2025-01-27 13:52:55,0.0
25836,856,-3148,-4719,6649,-8051,2025-01-27 13:52:55,0.0
25280,2444,-1928,-5570,3955,-8177,2025-01-27 13:52:55,0.0
25640,2188,2372,-6218,3279,-7567,2025-01-27 13:52:55,0.0
23472,4656,6528,-4648,1750,-5627,2025-01-27 13:52:55,0.0
22552,7276,8460,-1512,377,-4430,2025-01-27 13:52:55,0.0
21888,8904,10012,2095,-826,-2961,2025-01-27 13:52:55,0.0
21460,9084,9016,4371,-2809,-1621,2025-01-27 13:52:55,0.0
21400,4204,8832,6130,-4862,-1611,2025-01-27 13:52:55,0.0
18864,352,9164,6812,-6809,-1736,2025-01-27 13:52:55,0.0
15296,-3148,8712,6033,-8631,-635,2025-01-27 13:52:56,0.0
13884,-6000,7912,5104,-6501,1187,2025-01-27 13:52:56,0.0
13536,-7120,7040,4625,-1027,3228,2025-01-27 13:52:56,0.0
15412,-5064,4344,3525,5154,4657,2025-01-27 13:52:56,0.0
16900,-1400,3680,1804,9818,5194,2025-01-27 13:52:56,0.0
18064,1652,4920,1580,11522,5765,2025-01-27 13:52:56,0.0
19440,2792,5100,2614,9891,6009,2025-01-27 13:52:56,0.0
19232,1808,5584,3764,5096,5760,2025-01-27 13:52:56,0.0
18268,84,5336,4132,-701,5861,2025-01-27 13:52:56,0.0
16208,-1584,6340,4694,-6027,5982,2025-01-27 13:52:56,0.0
16868,-3176,3880,5359,-9670,5455,2025-01-27 13:52:56,0.0
16612,-3904,324,5268,-6201,3570,2025-01-27 13:52:56,0.0
13704,-3672,2256,4162,-495,2540,2025-01-27 13:52:56,0.0
12916,-3320,4732,3928,3452,2591,2025-01-27 13:52:56,0.0
14504,-2872,3744,4379,4897,2897,2025-01-27 13:52:56,0.0
16540,-2608,1576,3950,4243,2888,2025-01-27 13:52:56,0.0
18768,-2672,876,3030,2312,2022,2025-01-27 13:52:56,0.0
18908,-2848,548,2133,324,805,2025-01-27 13:52:56,0.0
18496,-2812,292,1473,-789,-434,2025-01-27 13:52:56,0.0
16948,-2348,732,1283,-1203,-1160,2025-01-27 13:52:56,0.0
16660,-1768,312,1666,-1732,-1422,2025-01-27 13:52:56,0.0
16732,-776,1100,1963,-1668,-1851,2025-01-27 13:52:56,0.0
16712,-484,2240,2520,-2120,-2329,2025-01-27 13:52:56,0.0
17004,-876,3432,2883,-1891,-2483,2025-01-27 13:52:56,0.0
17392,-528,4668,3630,-132,-1565,2025-01-27 13:52:56,0.0
19628,-1288,3892,4580,3612,-483,2025-01-27 13:52:56,0.0
19884,-4120,996,4549,6817,1897,2025-01-27 13:52:56,0.0
21292,-6444,-2716,4329,7514,6084,2025-01-27 13:52:56,0.0
26256,-7380,-3472,4193,5673,8419,2025-01-27 13:52:56,0.0
30168,-5364,-916,2906,5206,6704,2025-01-27 13:52:56,0.0
29188,-3796,6364,2223,4111,4431,2025-01-27 13:52:56,0.0
25204,-3228,7364,2916,-2328,4125,2025-01-27 13:52:56,0.0
23532,-6284,5100,1408,-7720,5646,2025-01-27 13:52:56,0.0
26744,-9132,5836,-1153,-10427,4786,2025-01-27 13:52:56,0.0
26876,-8264,5180,-3249,-8491,241,2025-01-27 13:52:56,0.0
20392,-5144,7440,-6434,-9413,-2246,2025-01-27 13:52:56,0.0
16060,-2264,11284,-7351,-10398,-3157,2025-01-27 13:52:56,0.0
13380,944,12404,-6166,-8410,-2908,2025-01-27 13:52:56,0.0
13492,3480,10652,-3970,-3833,-2084,2025-01-27 13:52:56,0.0
16516,3560,6652,-2170,3453,-2265,2025-01-27 13:52:56,0.0
19960,-680,3656,-1583,10313,-3697,2025-01-27 13:52:56,0.0
20672,-4432,2744,-2536,13126,-4754,2025-01-27 13:52:56,0.0
20864,-6200,3592,-3684,10375,-4715,2025-01-27 13:52:56,0.0
21472,-3776,4284,-5065,3703,-5640,2025-01-27 13:52:56,0.0
19256,-1448,3436,-5839,-1981,-6452,2025-01-27 13:52:56,0.0
15644,16,4956,-6501,-5832,-5835,2025-01-27 13:52:56,0.0
13624,1112,5312,-6311,-8967,-5012,2025-01-27 13:52:56,0.0
13744,1776,3760,-5855,-7973,-5140,2025-01-27 13:52:56,0.0
12092,2248,3048,-5930,-3882,-5020,2025-01-27 13:52:56,0.0
11808,1596,3248,-6086,-115,-3914,2025-01-27 13:52:56,0.0
13496,388,3444,-5688,1917,-3100,2025-01-27 13:52:56,0.0
15608,-300,2372,-4965,2935,-3019,2025-01-27 13:52:56,0.0
15272,-60,1804,-4171,2187,-2210,2025-01-27 13:52:56,0.0
14784,472,1612,-3111,494,-353,2025-01-27 13:52:56,0.0
14492,252,1080,-2341,-826,1427,2025-01-27 13:52:56,0.0
14448,-192,312,-1896,-1440,2564,2025-01-27 13:52:56,0.0
14536,-816,-1600,-2496,-625,3136,2025-01-27 13:52:56,0.0
15712,-1580,-800,-3255,764,3329,2025-01-27 13:52:56,0.0
17812,-988,492,-4075,1551,3435,2025-01-27 13:52:56,0.0
20588,-376,1152,-4943,1841,3229,2025-01-27 13:52:56,0.0
23368,-916,1852,-5353,1956,2076,2025-01-27 13:52:56,0.0
26272,-2248,1736,-5707,2507,260,2025-01-27 13:52:57,0.0
31000,-2444,2132,-5345,4863,-3600,2025-01-27 13:52:57,0.0
28512,36,-676,-3628,5590,-7824,2025-01-27 13:52:57,0.0
23876,1144,-4172,-4093,3047,-8492,2025-01-27 13:52:57,0.0
19640,-308,-4540,-5678,-1902,-6478,2025-01-27 13:52:57,0.0
21388,-1824,784,-6215,-2035,-4466,2025-01-27 13:52:57,0.0
21992,-1240,1568,-6883,2775,-2052,2025-01-27 13:52:57,0.0
25700,2332,4416,-6882,6052,-3020,2025-01-27 13:52:57,0.0
25780,4536,9576,-4134,4055,-4547,2025-01-27 13:52:57,0.0
21940,6756,11692,-861,-1084,-4306,2025-01-27 13:52:57,0.0
17732,5432,12508,2531,-7845,-1501,2025-01-27 13:52:57,0.0
15724,2592,12688,5764,-12428,712,2025-01-27 13:52:57,0.0
15440,-420,10224,6424,-12900,1141,2025-01-27 13:52:57,0.0
15652,-3612,5428,3091,-7323,1139,2025-01-27 13:52:57,0.0
15708,-5156,4496,861,3033,1111,2025-01-27 13:52:57,
16132,-3144,4948,436,10866,1864,2025-01-27 13:52:57,0.0
16600,976,5548,1102,12763,3545,2025-01-27 13:52:57,0.0
19132,3924,4772,2234,12359,5561,2025-01-27 13:52:57,0.0
20772,3384,5152,4146,8295,6626,2025-01-27 13:52:57,0.0
18964,-584,6124,6130,2068,7526,2025-01-27 13:52:57,0.0
16656,-3096,6036,6659,-5081,8250,2025-01-27 13:52:57,0.0
16020,-3988,5456,5859,-11545,7553,2025-01-27 13:52:57,0.0
15052,-4964,4592,5966,-14970,5490,2025-01-27 13:52:57,0.0
13116,-3376,1280,5436,-7772,2436,2025-01-27 13:52:57,0.0
10456,-2768,2428,4139,463,2085,2025-01-27 13:52:57,0.0
12188,-2652,5452,5025,5655,2781,2025-01-27 13:52:57,0.0
15288,-1916,4436,6225,7645,2555,2025-01-27 13:52:57,0.0
17396,-2316,-272,5430,6336,2107,2025-01-27 13:52:57,0.0
19332,-2284,-2012,4002,2596,572,2025-01-27 13:52:57,0.0
18796,-2292,-1408,2597,-24,-1316,2025-01-27 13:52:57,0.0
17628,-2296,240,2030,-1225,-2509,2025-01-27 13:52:57,0.0
17352,-1764,2056,2269,-1025,-2661,2025-01-27 13:52:57,0.0
16916,-1200,1984,3276,-469,-2701,2025-01-27 13:52:57,0.0
16820,-1248,2536,3958,173,-2544,2025-01-27 13:52:57,0.0
16428,-1648,3112,4700,360,-1728,2025-01-27 13:52:57,0.0
18176,-1428,2316,5562,1952,-601,2025-01-27 13:52:57,0.0
21632,40,1724,5965,5410,22,2025-01-27 13:52:57,0.0
22812,-776,664,6064,8692,868,2025-01-27 13:52:57,0.0
21800,-4112,-576,5600,9330,3746,2025-01-27 13:52:57,0.0
24256,-6904,-1084,4895,5850,6749,2025-01-27 13:52:57,0.0
28152,-6588,1380,4744,1179,5011,2025-01-27 13:52:57,0.0
27892,-3528,3868,3673,1553,3545,2025-01-27 13:52:57,0.0
25220,-2280,4720,3158,680,4380,2025-01-27 13:52:57,0.0
23028,-5668,4268,1442,-2363,6295,2025-01-27 13:52:57,0.0
24152,-9596,6740,-667,-6924,8089,2025-01-27 13:52:57,0.0
28868,-10796,6736,-1345,-9610,3986,2025-01-27 13:52:57,0.0
23052,-6340,5792,-4805,-10133,-1835,2025-01-27 13:52:57,0.0
18428,-3980,9532,-7279,-11327,-4036,2025-01-27 13:52:57,0.0
14104,-848,12192,-6886,-10538,-4677,2025-01-27 13:52:57,0.0
11648,2124,11868,-5106,-7760,-3380,2025-01-27 13:52:57,0.0
13532,4028,8740,-3215,-1839,-2223,2025-01-27 13:52:57,0.0
17036,1820,4900,-1881,7680,-2700,2025-01-27 13:52:57,0.0
20268,-4088,2912,-3015,14970,-4364,2025-01-27 13:52:57,0.0
20108,-7376,4268,-4332,13952,-4302,2025-01-27 13:52:57,0.0
22340,-5688,4204,-5669,7761,-5096,2025-01-27 13:52:57,0.0
20632,-2716,5132,-6143,993,-6450,2025-01-27 13:52:57,0.0
16332,12,3984,-7121,-4490,-6621,2025-01-27 13:52:57,0.0
14428,964,4720,-7379,-8415,-6015,2025-01-27 13:52:57,0.0
13660,1772,3296,-7059,-8558,-6054,2025-01-27 13:52:57,0.0
11652,1888,3308,-7129,-4511,-5653,2025-01-27 13:52:57,0.0
11076,1088,3516,-7197,-405,-4247,2025-01-27 13:52:57,0.0
13228,-148,3168,-7150,2027,-3456,2025-01-27 13:52:58,0.0
14468,-640,2808,-6804,2663,-3329,2025-01-27 13:52:58,0.0
14176,-304,2444,-5816,1698,-2489,2025-01-27 13:52:58,0.0
14120,944,1596,-4395,38,-524,2025-01-27 13:52:58,0.0
14704,1280,1220,-3030,-1332,1468,2025-01-27 13:52:58,0.0
15336,392,308,-2479,-1662,2351,2025-01-27 13:52:58,0.0
15140,-380,-1784,-2876,-1120,2925,2025-01-27 13:52:58,0.0
16180,-1612,-948,-3664,201,2906,2025-01-27 13:52:58,0.0
18056,-1368,-640,-4555,1399,2447,2025-01-27 13:52:58,0.0
19224,-1160,1328,-5218,2146,2081,2025-01-27 13:52:58,0.0
21528,-984,2292,-5444,2656,1410,2025-01-27 13:52:58,0.0
25136,-1788,1356,-5705,4189,-102,2025-01-27 13:52:58,0.0
31048,-1996,1680,-5588,7507,-3776,2025-01-27 13:52:58,0.0
31520,276,-1248,-4003,9025,-9770,2025-01-27 13:52:58,0.0
25336,2448,-2660,-4205,5481,-11490,2025-01-27 13:52:58,0.0
21356,2004,392,-5699,-1826,-8605,2025-01-27 13:52:58,0.0
20940,-1628,4692,-5233,-3959,-4179,2025-01-27 13:52:58,0.0
25028,2000,5952,-4318,-615,-3657,2025-01-27 13:52:58,0.0
26024,5092,10148,-3158,2827,-5116,2025-01-27 13:52:58,0.0
26744,6364,13040,526,2456,-7958,2025-01-27 13:52:58,0.0
21832,6372,12172,3869,-2773,-8236,2025-01-27 13:52:58,0.0
14544,4876,11000,5925,-9739,-4242,2025-01-27 13:52:58,0.0
11772,-1972,9476,7408,-13388,2188,2025-01-27 13:52:58,0.0
14184,-5444,6132,4233,-7937,5693,2025-01-27 13:52:58,0.0
16256,-6872,6404,831,-192,4880,2025-01-27 13:52:58,0.0
16984,-5084,5420,-301,7031,3777,2025-01-27 13:52:58,0.0
16800,-280,5364,-300,12354,3608,2025-01-27 13:52:58,0.0
17620,4816,6084,1134,13858,5313,2025-01-27 13:52:58,0.0
19344,6064,7412,4061,11352,6439,2025-01-27 13:52:58,0.0
19072,3788,6404,6338,5017,6972,2025-01-27 13:52:58,0.0
17540,-856,5512,6957,-1966,7628,2025-01-27 13:52:58,0.0
15068,-3336,5564,6607,-8894,7461,2025-01-27 13:52:58,0.0
13088,-5364,5616,6137,-13992,6224,2025-01-27 13:52:58,0.0
15008,-5784,1216,5959,-10620,3032,2025-01-27 13:52:58,0.0
11428,-4216,680,3983,-2831,1839,2025-01-27 13:52:58,0.0
11152,-3604,4532,3765,4543,2572,2025-01-27 13:52:58,0.0
14148,-2912,4888,4822,7362,2471,2025-01-27 13:52:58,0.0
15564,-2652,1944,4537,6686,2296,2025-01-27 13:52:58,0.0
17512,-2456,-304,3445,4545,1678,2025-01-27 13:52:58,0.0
18548,-2264,-924,2142,2425,150,2025-01-27 13:52:58,0.0
17440,-2312,792,1037,1482,-1442,2025-01-27 13:52:58,0.0
17652,-1908,656,925,996,-2326,2025-01-27 13:52:58,0.0
17260,-1276,1708,1713,1081,-2400,2025-01-27 13:52:58,0.0
18764,-752,2256,3230,860,-2237,2025-01-27 13:52:58,0.0
18148,-228,4304,4348,108,-1926,2025-01-27 13:52:58,0.0
19040,-84,4756,4671,-834,-1503,2025-01-27 13:52:58,0.0
20224,-116,4988,4848,-234,-889,2025-01-27 13:52:58,0.0
20660,-2200,1756,5129,2620,124,2025-01-27 13:52:58,0.0
19756,-6384,-1456,4594,4615,3939,2025-01-27 13:52:58,0.0
23608,-8944,-2672,3924,4169,9598,2025-01-27 13:52:58,0.0
29196,-6196,-1484,2907,3066,8061,2025-01-27 13:52:58,0.0
29420,-1212,3928,613,5106,5316,2025-01-27 13:52:58,0.0
25660,-1148,9464,1925,3434,4835,2025-01-27 13:52:58,0.0
23180,-4824,6044,2705,-2540,6964,2025-01-27 13:52:58,
24024,-8688,5032,-719,-8168,8576,2025-01-27 13:52:58,0.0
29788,-11144,5416,-2307,-9493,4801,2025-01-27 13:52:58,0.0
23224,-5384,4656,-5764,-8118,-690,2025-01-27 13:52:58,0.0
19532,-3204,9136,-7929,-10395,-1936,2025-01-27 13:52:58,0.0
16864,-240,12004,-7647,-10610,-2716,2025-01-27 13:52:58,0.0
13864,3036,13108,-6004,-8657,-2198,2025-01-27 13:52:58,0.0
15640,5120,9588,-2883,-2716,-2063,2025-01-27 13:52:58,0.0
18624,1408,5600,-849,6873,-3561,2025-01-27 13:52:59,0.0
19724,-3632,3472,-1632,11925,-4775,2025-01-27 13:52:59,0.0
18188,-7292,3688,-2951,9787,-3824,2025-01-27 13:52:59,0.0
20328,-5172,3604,-4680,4312,-3863,2025-01-27 13:52:59,0.0
19640,-2488,4316,-5886,-517,-5292,2025-01-27 13:52:59,0.0
15848,-260,4520,-6982,-4393,-5624,2025-01-27 13:52:59,0.0
14268,1164,4580,-6881,-6766,-4832,2025-01-27 13:52:59,0.0
13380,2324,3932,-6079,-5946,-4815,2025-01-27 13:52:59,0.0
12668,3364,2344,-5627,-3461,-4503,2025-01-27 13:52:59,0.0
12824,2936,2028,-5556,-601,-3843,2025-01-27 13:52:59,0.0
14292,1252,2708,-5543,1179,-3540,2025-01-27 13:52:59,0.0
15496,-48,3028,-5305,1311,-3760,2025-01-27 13:52:59,0.0
14432,-440,2544,-4622,422,-3390,2025-01-27 13:52:59,0.0
13352,104,2024,-3661,-127,-1799,2025-01-27 13:52:59,0.0
12952,104,1896,-3150,-173,26,2025-01-27 13:52:59,0.0
13340,-780,1580,-2770,503,1307,2025-01-27 13:52:59,0.0
14124,-1756,-388,-3222,2260,2115,2025-01-27 13:52:59,0.0
15160,-2144,-1396,-4135,3855,3002,2025-01-27 13:52:59,0.0
18364,-1740,-1548,-5486,4423,3054,2025-01-27 13:52:59,0.0
21064,-1108,-280,-6542,3731,2602,2025-01-27 13:52:59,0.0
23464,-144,1552,-7021,2918,1889,2025-01-27 13:52:59,0.0
26088,332,2604,-6731,1945,259,2025-01-27 13:52:59,0.0
30936,-764,3148,-6294,3052,-2633,2025-01-27 13:52:59,0.0
31576,664,2144,-3503,5189,-8307,2025-01-27 13:52:59,0.0
25492,2132,-2376,-2657,4040,-10384,2025-01-27 13:52:59,0.0
23260,2636,-1068,-3509,1150,-8996,2025-01-27 13:52:59,0.0
22804,-236,2972,-4631,-977,-6500,2025-01-27 13:52:59,0.0
25224,936,5464,-4694,-801,-4297,2025-01-27 13:52:59,0.0
27264,3020,9488,-3269,343,-5650,2025-01-27 13:52:59,0.0
26264,4888,13708,142,-327,-7528,2025-01-27 13:52:59,0.0
22412,5972,12112,3810,-4579,-8312,2025-01-27 13:52:59,0.0
14416,5132,10024,5711,-11936,-5337,2025-01-27 13:52:59,0.0
10492,-280,9168,8092,-14970,374,2025-01-27 13:52:59,0.0
12100,-3144,5792,6203,-8810,3807,2025-01-27 13:52:59,0.0
16392,-4520,5136,1344,-254,3663,2025-01-27 13:52:59,0.0
16932,-5052,6952,163,7207,2847,2025-01-27 13:52:59,0.0
18280,-1612,6600,1350,11511,3696,2025-01-27 13:52:59,0.0
18956,2828,7304,3367,12608,5449,2025-01-27 13:52:59,0.0
21148,5696,6764,5664,11174,6689,2025-01-27 13:52:59,0.0
19768,4764,7264,8228,5983,7261,2025-01-27 13:52:59,0.0
16840,768,5840,9101,-2364,8367,2025-01-27 13:52:59,0.0
15760,-1460,5272,8521,-9019,8415,2025-01-27 13:52:59,0.0
14312,-3324,5564,7892,-14401,7035,2025-01-27 13:52:59,0.0
14288,-5156,3016,7598,-10520,2906,2025-01-27 13:52:59,0.0
10880,-4728,2120,6046,-3175,1869,2025-01-27 13:52:59,0.0
10644,-4276,3776,5725,3697,2413,2025-01-27 13:52:59,0.0
12928,-3276,4700,6608,6816,2670,2025-01-27 13:52:59,0.0
14764,-2268,2592,6711,7312,2551,2025-01-27 13:52:59,0.0
16728,-1984,220,5652,5183,2016,2025-01-27 13:52:59,0.0
18440,-1852,-1324,4444,2775,653,2025-01-27 13:52:59,0.0
18608,-1992,-468,3240,1458,-778,2025-01-27 13:52:59,0.0
17128,-2336,1036,2723,185,-1440,2025-01-27 13:52:59,0.0
17264,-1704,108,2736,160,-1595,2025-01-27 13:52:59,0.0
17220,-1216,1816,3229,890,-1603,2025-01-27 13:52:59,0.0
17624,-1112,2516,3907,1200,-1502,2025-01-27 13:52:59,0.0
18360,-1332,3572,4644,1732,-1106,2025-01-27 13:52:59,0.0
20020,-1196,3364,5364,2450,196,2025-01-27 13:52:59,0.0
21544,-1472,1864,5245,3821,1037,2025-01-27 13:52:59,0.0
21120,-3440,88,4304,4923,2873,2025-01-27 13:52:59,0.0
22408,-7224,-1500,3762,4721,6197,2025-01-27 13:52:59,0.0
25408,-7708,-2324,3667,1918,7647,2025-01-27 13:52:59,0.0
28012,-5304,-1848,3232,-622,5017,2025-01-27 13:52:59,0.0
25272,-1944,3060,1578,1920,2812,2025-01-27 13:53:00,0.0
23860,-1620,6152,3226,881,4577,2025-01-27 13:53:00,0.0
22636,-5240,1972,2109,-2198,5437,2025-01-27 13:53:00,0.0
22936,-8548,5380,-2125,-6659,5731,2025-01-27 13:53:00,0.0
26452,-9068,8828,-3000,-9738,2342,2025-01-27 13:53:00,0.0
21860,-4776,8184,-4760,-10674,-1233,2025-01-27 13:53:00,0.0
17584,-2264,11796,-6889,-10928,-1349,2025-01-27 13:53:00,0.0
15636,1652,13064,-5385,-7268,-952,2025-01-27 13:53:00,0.0
15976,4864,11480,-2636,-1993,-1273,2025-01-27 13:53:00,0.0
18312,5264,7420,-269,4158,-2415,2025-01-27 13:53:00,0.0
21300,244,3828,755,10441,-4093,2025-01-27 13:53:00,0.0
21608,-4596,3572,432,11783,-5408,2025-01-27 13:53:00,0.0
21204,-7192,2364,-760,8363,-5478,2025-01-27 13:53:00,0.0
20744,-5560,2724,-2771,3114,-5615,2025-01-27 13:53:00,0.0
19572,-3344,2364,-4442,-1346,-6649,2025-01-27 13:53:00,0.0
15516,-1432,3788,-5691,-5548,-6834,2025-01-27 13:53:00,0.0
13004,-332,4592,-6229,-9008,-6126,2025-01-27 13:53:00,0.0
12260,936,3840,-6362,-10768,-5684,2025-01-27 13:53:00,0.0
10836,1928,3468,-6383,-7507,-5958,2025-01-27 13:53:00,0.0
9680,2116,3868,-6267,1967,-4171,2025-01-27 13:53:00,0.0
12016,1292,3876,-5250,5641,-3147,2025-01-27 13:53:00,0.0
15320,868,276,-1559,-903,1549,2025-01-27 13:53:00,0.0
15032,-248,820,-1116,-1769,2984,2025-01-27 13:53:00,0.0
15708,-752,-384,-2165,-615,3247,2025-01-27 13:53:00,0.0
18020,-1032,-524,-4032,756,2393,2025-01-27 13:53:00,0.0
19436,-1052,112,-5381,1859,1622,2025-01-27 13:53:00,0.0
22416,-1656,-336,-5640,3585,1311,2025-01-27 13:53:00,0.0
26788,-2052,-1380,-6410,5854,99,2025-01-27 13:53:00,0.0
32456,-2200,664,-6442,8668,-4302,2025-01-27 13:53:00,0.0
29108,-160,2076,-4570,8141,-8297,2025-01-27 13:53:00,0.0
24272,2040,72,-4027,3867,-9396,2025-01-27 13:53:00,
