acceleration_x,acceleration_y,acceleration_z,gyroscope_x,gyroscope_y,gyroscope_z,timestamp,label
-13756,-1672,2072,248,152,-176,2025-01-27 14:15:11,0.0
-13728,-1672,1936,277,239,-218,2025-01-27 14:15:11,0.0
-13860,-1552,2032,300,330,-215,2025-01-27 14:15:11,0.0
-13708,-1664,1948,280,364,-193,2025-01-27 14:15:11,0.0
-13840,-1540,1872,222,430,-211,2025-01-27 14:15:11,0.0
-13824,-1400,2044,132,387,-194,2025-01-27 14:15:11,0.0
-13884,-1412,1828,66,358,-168,2025-01-27 14:15:11,0.0
-13860,-1340,1880,28,303,-138,2025-01-27 14:15:11,0.0
-13936,-1480,1780,-148,295,-131,2025-01-27 14:15:11,0.0
-13976,-1444,1800,-226,301,-125,2025-01-27 14:15:11,0.0
-14028,-1444,1892,-267,219,-123,2025-01-27 14:15:11,0.0
-13976,-1444,1876,-309,-5,-130,2025-01-27 14:15:11,0.0
-13844,-1424,1864,-358,-166,-146,2025-01-27 14:15:11,0.0
-13676,-1524,1992,-379,-129,-141,2025-01-27 14:15:11,0.0
-13652,-1464,1768,-436,-2,-118,2025-01-27 14:15:11,0.0
-13744,-1548,1880,-469,201,-133,2025-01-27 14:15:11,0.0
-13800,-1508,1856,-456,345,-103,2025-01-27 14:15:11,0.0
-13796,-1548,1920,-483,336,-109,2025-01-27 14:15:11,0.0
-13896,-1544,1964,-487,200,-107,2025-01-27 14:15:11,0.0
-13800,-1724,1780,-430,165,-98,2025-01-27 14:15:11,0.0
-13584,-1720,2004,-356,296,-107,2025-01-27 14:15:11,0.0
-13640,-1796,1968,-240,530,-161,2025-01-27 14:15:11,0.0
-13836,-1820,1884,-110,483,-207,2025-01-27 14:15:11,0.0
-13872,-1840,1864,26,311,-235,2025-01-27 14:15:11,0.0
-13940,-1860,2072,118,289,-227,2025-01-27 14:15:11,0.0
-13792,-1652,2040,217,213,-255,2025-01-27 14:15:11,0.0
-13804,-1608,2136,348,97,-241,2025-01-27 14:15:11,0.0
-13816,-1684,2072,410,58,-229,2025-01-27 14:15:11,0.0
-13848,-1528,1900,404,57,-219,2025-01-27 14:15:11,0.0
-13812,-1592,1948,376,78,-209,2025-01-27 14:15:11,0.0
-13972,-1480,2084,350,152,-237,2025-01-27 14:15:11,0.0
-13924,-1484,1780,372,140,-217,2025-01-27 14:15:11,0.0
-13924,-1372,1884,379,-3,-192,2025-01-27 14:15:11,0.0
-13796,-1492,1932,286,-60,-205,2025-01-27 14:15:11,0.0
-13712,-1468,1848,279,-105,-207,2025-01-27 14:15:11,0.0
-13632,-1512,1976,231,9,-199,2025-01-27 14:15:11,0.0
-13584,-1472,1856,228,193,-213,2025-01-27 14:15:11,0.0
-13680,-1468,1876,219,318,-224,2025-01-27 14:15:11,0.0
-13728,-1592,1968,211,362,-223,2025-01-27 14:15:11,0.0
-13740,-1456,1760,189,316,-201,2025-01-27 14:15:11,0.0
-13676,-1480,1796,138,247,-192,2025-01-27 14:15:11,0.0
-13620,-1544,1884,114,288,-208,2025-01-27 14:15:11,0.0
-13724,-1516,1956,145,433,-250,2025-01-27 14:15:11,0.0
-13944,-1500,2004,134,539,-245,2025-01-27 14:15:11,0.0
-13748,-1548,1912,83,510,-256,2025-01-27 14:15:11,0.0
-13940,-1424,2052,101,438,-217,2025-01-27 14:15:11,0.0
-14016,-1456,2048,98,390,-236,2025-01-27 14:15:11,0.0
-13828,-1496,1908,41,251,-242,2025-01-27 14:15:11,0.0
-13812,-1592,2048,-5,206,-250,2025-01-27 14:15:11,0.0
-13624,-1612,2064,0,260,-257,2025-01-27 14:15:11,0.0
-13684,-1628,2180,28,388,-252,2025-01-27 14:15:11,0.0
-13732,-1520,1988,35,433,-237,2025-01-27 14:15:11,0.0
-14040,-1472,1808,-5,291,-264,2025-01-27 14:15:11,0.0
-13912,-1592,1944,-72,264,-259,2025-01-27 14:15:11,0.0
-13896,-1676,1952,-75,319,-235,2025-01-27 14:15:11,0.0
-13788,-1628,1816,-35,311,-203,2025-01-27 14:15:12,0.0
-13760,-1496,1776,-103,400,-187,2025-01-27 14:15:12,0.0
-13820,-1520,1904,-87,651,-206,2025-01-27 14:15:12,0.0
-13764,-1636,1616,-65,644,-171,2025-01-27 14:15:12,0.0
-13744,-1600,1672,-120,493,-224,2025-01-27 14:15:12,0.0
-13892,-1536,1600,-192,339,-217,2025-01-27 14:15:12,0.0
-13904,-1608,1868,-216,242,-190,2025-01-27 14:15:12,0.0
-14004,-1508,2024,-228,225,-161,2025-01-27 14:15:12,0.0
-13868,-1652,1840,-240,142,-103,2025-01-27 14:15:12,0.0
-13832,-1504,1660,-287,95,-158,2025-01-27 14:15:12,0.0
-13824,-1636,1672,-309,146,-147,2025-01-27 14:15:12,0.0
-13804,-1716,1520,-318,259,-181,2025-01-27 14:15:12,0.0
-13928,-1664,1508,-362,219,-172,2025-01-27 14:15:12,0.0
-14044,-1648,1540,-443,63,-182,2025-01-27 14:15:12,0.0
-14032,-1720,1704,-459,-216,-157,2025-01-27 14:15:12,0.0
-13948,-1824,1648,-464,-297,-144,2025-01-27 14:15:12,0.0
-13944,-1816,1296,-541,-338,-134,2025-01-27 14:15:12,0.0
-13892,-1748,1184,-645,-396,-93,2025-01-27 14:15:12,0.0
-13776,-1748,1280,-772,-377,-88,2025-01-27 14:15:12,0.0
-13756,-1780,1092,-831,-339,-86,2025-01-27 14:15:12,0.0
-13960,-1832,1256,-999,-144,-71,2025-01-27 14:15:12,0.0
-14060,-1736,1136,-1229,-216,-49,2025-01-27 14:15:12,0.0
-14380,-1536,1128,-1348,-414,21,2025-01-27 14:15:12,0.0
-14416,-1584,1044,-1503,-627,111,2025-01-27 14:15:12,0.0
-14296,-1744,820,-1624,-920,183,2025-01-27 14:15:12,0.0
-14076,-1772,792,-1729,-1316,277,2025-01-27 14:15:12,0.0
-13960,-2004,1028,-1878,-1554,312,2025-01-27 14:15:12,0.0
-13952,-2136,1164,-1896,-1596,389,2025-01-27 14:15:12,0.0
-13960,-2096,1012,-1960,-1620,490,2025-01-27 14:15:12,0.0
-14040,-2044,840,-2066,-1777,517,2025-01-27 14:15:12,0.0
-14296,-2040,760,-2123,-2178,539,2025-01-27 14:15:12,0.0
-14252,-2056,752,-2247,-2665,762,2025-01-27 14:15:12,0.0
-14036,-2052,1184,-2326,-3353,1058,2025-01-27 14:15:12,0.0
-13672,-1816,1096,-2316,-3884,1392,2025-01-27 14:15:12,0.0
-13456,-1592,364,-2386,-4011,1765,2025-01-27 14:15:12,0.0
-13344,-1704,-88,-2664,-3640,1879,2025-01-27 14:15:12,0.0
-13056,-1612,-20,-2857,-3154,1812,2025-01-27 14:15:12,0.0
-12728,-1756,-68,-2984,-2754,1735,2025-01-27 14:15:12,0.0
-12248,-1788,220,-3093,-2303,1637,2025-01-27 14:15:12,0.0
-11748,-1868,124,-3143,-1557,1344,2025-01-27 14:15:12,0.0
-11440,-1716,-360,-3040,-464,830,2025-01-27 14:15:12,0.0
-10896,-1304,-1736,-2946,358,138,2025-01-27 14:15:12,0.0
-10288,-728,-2896,-2746,-206,-776,2025-01-27 14:15:12,0.0
-9204,-836,-2616,-2935,-2376,-1534,2025-01-27 14:15:12,0.0
-8756,-1000,1564,-3872,-1537,-2509,2025-01-27 14:15:12,
-9908,-1556,7096,-3515,4293,-2886,2025-01-27 14:15:12,0.0
-13044,-1432,8020,-1065,9740,-1701,2025-01-27 14:15:12,0.0
-14812,-1444,6140,270,9923,-201,2025-01-27 14:15:12,0.0
-15740,-776,4712,289,6420,767,2025-01-27 14:15:12,0.0
-15024,-324,3864,68,1480,1332,2025-01-27 14:15:12,0.0
-15316,-32,4788,-47,-1759,1514,2025-01-27 14:15:12,0.0
-14088,264,3888,-19,-3938,1540,2025-01-27 14:15:12,0.0
-12672,620,4176,-141,-6172,1378,2025-01-27 14:15:12,0.0
-10100,936,3372,-405,-8892,730,2025-01-27 14:15:12,0.0
-9176,492,2856,-624,-10036,193,2025-01-27 14:15:12,0.0
-8792,-252,3312,-650,-8658,-31,2025-01-27 14:15:12,0.0
-8864,-960,3872,-575,-5005,-581,2025-01-27 14:15:12,0.0
-9848,-1236,4396,-191,-2075,-1371,2025-01-27 14:15:12,0.0
-11556,-1368,4960,43,-2768,-1513,2025-01-27 14:15:13,0.0
-12248,-1856,4596,822,-4747,-1119,2025-01-27 14:15:13,0.0
-12488,-2700,3440,1663,-5853,-740,2025-01-27 14:15:13,0.0
-12412,-2356,2656,1513,-5479,-1206,2025-01-27 14:15:13,0.0
-13040,-1156,3948,542,-4435,-1827,2025-01-27 14:15:13,0.0
-13032,-520,5996,-394,-4761,-2026,2025-01-27 14:15:13,0.0
-12740,64,7024,-411,-6614,-2248,2025-01-27 14:15:13,0.0
-12252,220,6872,116,-7279,-2206,2025-01-27 14:15:13,0.0
-12696,-508,5504,496,-6724,-1837,2025-01-27 14:15:13,0.0
-13068,-892,5688,901,-6630,-1366,2025-01-27 14:15:13,0.0
-13672,-1412,7700,1394,-6299,-1234,2025-01-27 14:15:13,0.0
-14228,-1636,8588,1510,-7168,-1242,2025-01-27 14:15:13,0.0
-14224,-1904,8400,1445,-8925,-1038,2025-01-27 14:15:13,0.0
-13828,-1468,8652,1418,-10184,-1344,2025-01-27 14:15:13,0.0
-13204,-1304,8108,1229,-10736,-1792,2025-01-27 14:15:13,0.0
-12956,-1496,8496,1142,-10498,-2011,2025-01-27 14:15:13,0.0
-12508,-1628,8772,1839,-10555,-1729,2025-01-27 14:15:13,0.0
-13048,-2156,9296,2718,-10822,-1341,2025-01-27 14:15:13,0.0
-11912,-2552,9096,3136,-10838,-1429,2025-01-27 14:15:13,0.0
-11152,-2420,9736,3205,-10998,-1817,2025-01-27 14:15:13,0.0
-11080,-1924,10168,3366,-11717,-2013,2025-01-27 14:15:13,0.0
-11356,-1448,10804,3586,-12782,-1856,2025-01-27 14:15:13,0.0
-11300,-1552,11064,3634,-13853,-1701,2025-01-27 14:15:13,0.0
-10952,-2056,10480,3521,-13713,-1741,2025-01-27 14:15:13,0.0
-11180,-2220,11012,3047,-11688,-2167,2025-01-27 14:15:13,0.0
-11416,-1996,11576,2480,-10640,-2363,2025-01-27 14:15:13,0.0
-11500,-2044,12612,1833,-10763,-2507,2025-01-27 14:15:13,0.0
-10596,-2496,12652,1595,-11771,-2800,2025-01-27 14:15:13,0.0
-10256,-2528,12024,1096,-11838,-3107,2025-01-27 14:15:13,0.0
-10624,-1476,12104,643,-10662,-3210,2025-01-27 14:15:13,0.0
-9696,-1224,13232,737,-8748,-2945,2025-01-27 14:15:13,0.0
-9880,-1140,14448,839,-8480,-2644,2025-01-27 14:15:13,0.0
-8884,-1876,13452,628,-9407,-2747,2025-01-27 14:15:13,0.0
-8548,-2012,13064,178,-9820,-3139,2025-01-27 14:15:13,0.0
-13296,-3364,12916,386,-2772,-2854,2025-01-27 14:15:13,0.0
-6992,-1940,14180,942,-8601,-2988,2025-01-27 14:15:13,0.0
-8744,-3332,15980,1527,-8534,-2946,2025-01-27 14:15:13,0.0
-8576,-3452,16564,1817,-10023,-3203,2025-01-27 14:15:13,0.0
-8012,-2184,16508,2158,-10045,-3484,2025-01-27 14:15:13,0.0
-8152,-804,18180,1490,-8264,-4032,2025-01-27 14:15:13,0.0
-8492,-768,18376,675,-7869,-3967,2025-01-27 14:15:13,0.0
-7760,-1224,18220,-379,-8180,-3602,2025-01-27 14:15:13,0.0
-7056,-1064,18456,-786,-8168,-2752,2025-01-27 14:15:13,0.0
-6148,-1068,18644,-879,-7669,-1988,2025-01-27 14:15:13,0.0
-4436,-1428,18324,-1719,-7543,-1599,2025-01-27 14:15:13,0.0
-4208,-2124,18532,-2137,-6817,-1461,2025-01-27 14:15:13,0.0
-4644,-2816,17944,-2511,-5854,-1495,2025-01-27 14:15:13,0.0
-4808,-2464,18556,-3724,-5223,-1715,2025-01-27 14:15:13,0.0
-5572,-1512,18964,-4424,-5299,-1561,2025-01-27 14:15:13,0.0
-5060,-632,19232,-4371,-5892,-737,2025-01-27 14:15:13,0.0
-3648,-1644,18108,-2354,-5215,371,2025-01-27 14:15:13,0.0
-2356,-2172,18308,-2047,-6209,274,2025-01-27 14:15:13,0.0
-3344,-3824,18160,-2058,-8294,-220,2025-01-27 14:15:13,0.0
-2452,-4764,18560,-2314,-10264,-1607,2025-01-27 14:15:13,0.0
-3208,-5656,19988,-1759,-9518,-3264,2025-01-27 14:15:13,0.0
-3388,-5824,19864,-1492,-7477,-5064,2025-01-27 14:15:13,0.0
-4316,-4728,17228,-1930,-6081,-5866,2025-01-27 14:15:13,0.0
-1500,-4028,17812,-2316,-7692,-6476,2025-01-27 14:15:13,0.0
-532,-4312,18964,-2777,-8679,-7415,2025-01-27 14:15:13,0.0
-1568,-4152,18820,-3559,-9301,-8218,2025-01-27 14:15:13,0.0
-924,-4560,18464,-3649,-9691,-8574,2025-01-27 14:15:13,0.0
344,-4996,19636,-3686,-11664,-9552,2025-01-27 14:15:13,0.0
-1244,-4684,20636,-3256,-11988,-10031,2025-01-27 14:15:14,0.0
2140,-4788,20264,-2573,-14320,-10614,2025-01-27 14:15:14,0.0
4844,-4140,19620,-1180,-14005,-11929,2025-01-27 14:15:14,0.0
5060,-2832,18480,-1203,-15377,-12431,2025-01-27 14:15:14,0.0
3088,-3044,18924,-1359,-14039,-12669,2025-01-27 14:15:14,0.0
652,-4156,14544,-1478,-6831,-11660,2025-01-27 14:15:14,0.0
1828,-2612,17028,-1613,-1824,-11182,2025-01-27 14:15:14,0.0
3272,-2744,18256,-1623,-465,-10270,2025-01-27 14:15:14,0.0
3276,-4028,19048,-1930,-2294,-9598,2025-01-27 14:15:14,0.0
536,-5188,17620,-1371,-226,-9062,2025-01-27 14:15:14,0.0
828,-4648,16844,-1974,1990,-7748,2025-01-27 14:15:14,0.0
720,-6420,17392,-1398,6415,-7109,2025-01-27 14:15:14,0.0
2060,-8564,19348,-1073,9012,-6723,2025-01-27 14:15:14,0.0
4,-9408,18680,-729,9075,-6914,2025-01-27 14:15:14,0.0
364,-7608,18952,-1546,4761,-6797,2025-01-27 14:15:14,0.0
2052,-5376,18820,-2001,2805,-6987,2025-01-27 14:15:14,0.0
1916,-4412,16596,-2477,651,-6365,2025-01-27 14:15:14,0.0
1156,-5520,16804,-1680,765,-5397,2025-01-27 14:15:14,0.0
2436,-5020,19288,-1365,1437,-5363,2025-01-27 14:15:14,0.0
2292,-4420,17716,-1564,2118,-4827,2025-01-27 14:15:14,0.0
1980,-3132,17680,-1568,1275,-4654,2025-01-27 14:15:14,0.0
816,-3380,17512,-1442,-399,-4227,2025-01-27 14:15:14,0.0
792,-5644,18864,-741,-3133,-3715,2025-01-27 14:15:14,0.0
3264,-6976,18836,296,-3938,-3424,2025-01-27 14:15:14,0.0
1356,-6880,18116,716,-3559,-3444,2025-01-27 14:15:14,
3320,-5692,15980,-155,-3617,-2781,2025-01-27 14:15:14,0.0
2740,-3696,16148,-542,-3794,-2125,2025-01-27 14:15:14,0.0
4388,-2988,14228,-603,-4741,-2340,2025-01-27 14:15:14,0.0
5676,-6632,14868,-1262,-3460,-2561,2025-01-27 14:15:14,0.0
6984,-8752,16196,-1159,-885,-2807,2025-01-27 14:15:14,0.0
5480,-8840,16980,-869,2230,-3054,2025-01-27 14:15:14,0.0
2524,-9172,18500,-1015,2729,-3582,2025-01-27 14:15:14,0.0
4484,-8840,22244,-384,-1175,-3918,2025-01-27 14:15:14,0.0
5512,-6840,19680,737,-4208,-3274,2025-01-27 14:15:14,0.0
7104,-6600,17164,805,-3353,-3271,2025-01-27 14:15:14,0.0
5644,-8552,16296,2065,-2127,-3100,2025-01-27 14:15:14,0.0
6612,-9764,17392,4217,-2281,-3153,2025-01-27 14:15:14,0.0
5588,-7476,17048,6103,-3425,-3509,2025-01-27 14:15:14,0.0
8244,-3816,19648,6393,-3727,-3407,2025-01-27 14:15:14,0.0
9600,-2104,18060,6217,-3710,-4143,2025-01-27 14:15:14,0.0
8316,-1668,18108,6485,-1614,-3983,2025-01-27 14:15:14,0.0
8020,-2420,16740,6890,-3172,-3617,2025-01-27 14:15:14,0.0
8580,-4356,17768,6993,-4149,-3768,2025-01-27 14:15:14,0.0
8332,-5360,18196,6429,-2875,-3684,2025-01-27 14:15:14,0.0
6828,-5668,18888,5756,-1171,-3587,2025-01-27 14:15:14,0.0
7152,-4988,16844,4565,-3651,-4046,2025-01-27 14:15:14,0.0
6752,-3444,16000,4631,-4446,-4110,2025-01-27 14:15:14,0.0
7520,-2340,18064,5694,-1660,-3233,2025-01-27 14:15:14,0.0
8516,-1520,20028,6380,937,-2519,2025-01-27 14:15:14,0.0
4940,-2052,19020,6257,2380,-1763,2025-01-27 14:15:14,0.0
4432,-2356,17196,5362,347,-1961,2025-01-27 14:15:14,0.0
6500,-2796,16140,4249,-1947,-3014,2025-01-27 14:15:14,0.0
7536,-3176,15796,3557,-812,-3714,2025-01-27 14:15:14,0.0
7312,-3000,14164,3626,-803,-3593,2025-01-27 14:15:14,0.0
8996,-2168,12860,3238,110,-3933,2025-01-27 14:15:14,0.0
8088,-172,15040,2720,4769,-2319,2025-01-27 14:15:14,0.0
5700,2604,17228,3117,9214,-422,2025-01-27 14:15:14,0.0
4888,4244,17532,2863,11917,1270,2025-01-27 14:15:14,0.0
3724,2952,19192,1671,14185,1244,2025-01-27 14:15:14,0.0
4168,1268,17168,-716,11660,438,2025-01-27 14:15:14,0.0
6028,724,16836,-2422,8487,-1010,2025-01-27 14:15:14,0.0
6224,1868,16300,-3666,7251,-2040,2025-01-27 14:15:15,0.0
6144,2700,17792,-4436,10072,-2260,2025-01-27 14:15:15,0.0
4496,2484,19076,-4151,13580,-2457,2025-01-27 14:15:15,0.0
1656,1888,18784,-3850,14663,-2502,2025-01-27 14:15:15,0.0
332,108,19720,-4086,12564,-1827,2025-01-27 14:15:15,0.0
552,-2672,21392,-3823,7293,-1238,2025-01-27 14:15:15,0.0
416,-4312,22356,-2858,1407,-843,2025-01-27 14:15:15,0.0
1076,-3728,22240,-1590,-831,-836,2025-01-27 14:15:15,0.0
1480,-3144,20596,-1239,572,-756,2025-01-27 14:15:15,0.0
1468,-2328,18584,-1455,2802,153,2025-01-27 14:15:15,0.0
1524,-1444,18292,-1103,4672,964,2025-01-27 14:15:15,0.0
348,-60,17376,-504,5995,1889,2025-01-27 14:15:15,0.0
28,260,18132,-1277,6397,2648,2025-01-27 14:15:15,0.0
-484,-2304,20120,-2324,4644,2004,2025-01-27 14:15:15,0.0
508,-4320,19208,-2648,3840,923,2025-01-27 14:15:15,0.0
-2524,-5516,21004,-1898,-137,-158,2025-01-27 14:15:15,0.0
-2220,-5640,18520,-604,-3235,-540,2025-01-27 14:15:15,0.0
-992,-4556,16084,93,-5435,-180,2025-01-27 14:15:15,0.0
644,-3004,14784,110,-6166,70,2025-01-27 14:15:15,0.0
2272,-2224,15408,-578,-5640,51,2025-01-27 14:15:15,0.0
3012,-3604,17520,-654,-4740,-167,2025-01-27 14:15:15,0.0
3072,-4644,17912,-704,-4502,-693,2025-01-27 14:15:15,0.0
3244,-3920,18344,-313,-5000,-1224,2025-01-27 14:15:15,0.0
4320,-3412,18468,-228,-4715,-1415,2025-01-27 14:15:15,0.0
4904,-4448,19228,-21,-4318,-1807,2025-01-27 14:15:15,0.0
4364,-4612,19116,365,-2605,-1706,2025-01-27 14:15:15,0.0
3924,-4268,18792,1067,-589,-1600,2025-01-27 14:15:15,0.0
3396,-3324,18064,670,1092,-1595,2025-01-27 14:15:15,0.0
2684,-2596,18464,63,1110,-1667,2025-01-27 14:15:15,0.0
2408,-2160,18992,-47,-98,-1494,2025-01-27 14:15:15,0.0
2208,-1760,18428,382,-1515,-1228,2025-01-27 14:15:15,0.0
2620,-1432,17924,704,-1966,-1010,2025-01-27 14:15:15,0.0
2844,-1024,17756,1037,-1674,-694,2025-01-27 14:15:15,0.0
3348,-792,18252,1523,-938,-560,2025-01-27 14:15:15,0.0
3612,-692,18516,1975,-556,-652,2025-01-27 14:15:15,0.0
3664,-784,18304,1962,-743,-779,2025-01-27 14:15:15,0.0
3572,-720,18260,1701,-1098,-856,2025-01-27 14:15:15,0.0
3704,-936,17820,1118,-1090,-794,2025-01-27 14:15:15,0.0
3952,-1528,17276,105,-800,-751,2025-01-27 14:15:15,0.0
3812,-1860,17124,-538,-92,-662,2025-01-27 14:15:15,0.0
3532,-2128,17748,-767,713,-549,2025-01-27 14:15:15,0.0
2980,-2308,18064,-632,1112,-485,2025-01-27 14:15:15,0.0
2464,-2316,18428,-414,982,-376,2025-01-27 14:15:15,0.0
2196,-2608,18720,-45,367,-327,2025-01-27 14:15:15,0.0
2424,-3004,19116,411,-870,-490,2025-01-27 14:15:15,0.0
2844,-3076,18868,518,-1625,-799,2025-01-27 14:15:15,0.0
2856,-2748,18464,491,-2154,-952,2025-01-27 14:15:15,0.0
2920,-2600,18116,311,-2286,-786,2025-01-27 14:15:15,0.0
3192,-2300,18212,359,-1944,-489,2025-01-27 14:15:15,0.0
3800,-1684,18112,514,-1655,-175,2025-01-27 14:15:15,0.0
4152,-1460,18132,354,-1405,-51,2025-01-27 14:15:15,0.0
4248,-1504,18700,345,-1111,17,2025-01-27 14:15:15,0.0
4464,-1772,19032,416,-708,-35,2025-01-27 14:15:15,0.0
4348,-2052,19152,437,-182,-132,2025-01-27 14:15:15,0.0
4548,-2020,19044,285,264,-287,2025-01-27 14:15:15,0.0
4364,-1800,19008,165,539,-433,2025-01-27 14:15:15,0.0
4096,-1584,18692,-2,554,-487,2025-01-27 14:15:15,0.0
4064,-1384,18400,87,531,-500,2025-01-27 14:15:15,0.0
3780,-1360,18172,160,584,-422,2025-01-27 14:15:15,0.0
3692,-1468,18164,247,592,-285,2025-01-27 14:15:15,0.0
3744,-1512,18216,270,586,-187,2025-01-27 14:15:15,0.0
3744,-1576,18348,251,537,-132,2025-01-27 14:15:16,0.0
3720,-1560,18404,234,509,-151,2025-01-27 14:15:16,0.0
3680,-1488,18608,130,519,-210,2025-01-27 14:15:16,
