acceleration_x,acceleration_y,acceleration_z,gyroscope_x,gyroscope_y,gyroscope_z,timestamp,label
-13844,-836,64,-155,125,-173,2025-01-27 14:14:39,0.0
-13900,-884,-32,-177,42,-149,2025-01-27 14:14:39,0.0
-13748,-848,-80,-176,26,-156,2025-01-27 14:14:39,0.0
-13664,-920,-12,-201,52,-161,2025-01-27 14:14:39,0.0
-13640,-960,-104,-240,59,-150,2025-01-27 14:14:39,0.0
-13720,-924,-40,-237,128,-164,2025-01-27 14:14:39,0.0
-13776,-860,116,-249,131,-148,2025-01-27 14:14:39,0.0
-13764,-892,-148,-234,141,-180,2025-01-27 14:14:39,0.0
-13784,-892,144,-237,160,-166,2025-01-27 14:14:39,0.0
-13724,-936,12,-233,153,-179,2025-01-27 14:14:39,0.0
-13728,-928,0,-209,188,-153,2025-01-27 14:14:39,0.0
-13860,-920,24,-197,189,-169,2025-01-27 14:14:40,0.0
-13844,-992,-20,-163,163,-167,2025-01-27 14:14:40,0.0
-13776,-880,100,-172,157,-161,2025-01-27 14:14:40,0.0
-13816,-900,-104,-158,192,-137,2025-01-27 14:14:40,0.0
-13692,-908,-4,-157,169,-158,2025-01-27 14:14:40,0.0
-13748,-924,-76,-176,234,-191,2025-01-27 14:14:40,0.0
-13768,-824,80,-137,208,-175,2025-01-27 14:14:40,0.0
-13828,-948,52,-119,221,-167,2025-01-27 14:14:40,0.0
-13768,-800,44,-123,195,-170,2025-01-27 14:14:40,0.0
-13688,-824,20,-151,151,-174,2025-01-27 14:14:40,0.0
-13756,-872,36,-155,159,-154,2025-01-27 14:14:40,0.0
-13708,-880,104,-153,207,-162,2025-01-27 14:14:40,0.0
-13784,-896,44,-176,221,-165,2025-01-27 14:14:40,0.0
-13788,-924,-52,-196,200,-161,2025-01-27 14:14:40,0.0
-13768,-880,44,-188,166,-165,2025-01-27 14:14:40,0.0
-13664,-836,-132,-173,166,-195,2025-01-27 14:14:40,0.0
-13684,-860,-192,-185,181,-128,2025-01-27 14:14:40,0.0
-13832,-840,-12,-200,160,-156,2025-01-27 14:14:40,0.0
-13776,-844,72,-212,168,-161,2025-01-27 14:14:40,0.0
-13776,-896,-8,-214,166,-162,2025-01-27 14:14:40,0.0
-13704,-836,-140,-201,152,-171,2025-01-27 14:14:40,0.0
-13732,-804,32,-192,278,-163,2025-01-27 14:14:40,0.0
-13828,-828,-160,-174,261,-193,2025-01-27 14:14:40,0.0
-13788,-944,108,-141,83,-192,2025-01-27 14:14:40,0.0
-13792,-856,164,-103,133,-163,2025-01-27 14:14:40,0.0
-13708,-812,-12,-123,206,-191,2025-01-27 14:14:40,0.0
-13888,-776,40,-85,218,-160,2025-01-27 14:14:40,0.0
-13696,-828,-112,-129,194,-170,2025-01-27 14:14:40,0.0
-13784,-904,88,-103,213,-152,2025-01-27 14:14:40,0.0
-13732,-808,-72,-133,253,-135,2025-01-27 14:14:40,0.0
-13864,-860,-40,-109,226,-154,2025-01-27 14:14:40,0.0
-13780,-872,-20,-169,158,-166,2025-01-27 14:14:40,0.0
-13820,-832,-20,-158,152,-164,2025-01-27 14:14:40,0.0
-13740,-784,-60,-187,161,-152,2025-01-27 14:14:40,0.0
-13792,-764,-32,-235,182,-169,2025-01-27 14:14:40,0.0
-13740,-820,-88,-195,163,-163,2025-01-27 14:14:40,0.0
-13712,-876,-92,-178,145,-183,2025-01-27 14:14:40,0.0
-13656,-904,0,-171,163,-164,2025-01-27 14:14:40,0.0
-13768,-892,-100,-192,162,-178,2025-01-27 14:14:40,0.0
-13784,-796,-72,-180,179,-168,2025-01-27 14:14:40,0.0
-13716,-908,8,-167,194,-185,2025-01-27 14:14:40,0.0
-13752,-836,-180,-168,221,-165,2025-01-27 14:14:40,0.0
-13700,-776,-100,-190,224,-173,2025-01-27 14:14:40,0.0
-13820,-880,-204,-200,240,-174,2025-01-27 14:14:40,0.0
-13704,-884,-220,-131,209,-177,2025-01-27 14:14:40,0.0
-13764,-884,-116,-134,133,-180,2025-01-27 14:14:40,0.0
-13776,-824,-36,-131,128,-180,2025-01-27 14:14:40,0.0
-13760,-784,-60,-119,122,-192,2025-01-27 14:14:40,0.0
-13752,-848,-92,-134,114,-175,2025-01-27 14:14:40,0.0
-13724,-896,-60,-140,53,-168,2025-01-27 14:14:40,0.0
-13700,-772,-88,-148,20,-160,2025-01-27 14:14:40,0.0
-13832,-820,-104,-141,1,-161,2025-01-27 14:14:40,0.0
-13828,-844,-208,-144,22,-167,2025-01-27 14:14:40,0.0
-13748,-800,-176,-118,24,-176,2025-01-27 14:14:40,0.0
-13756,-884,-196,-128,-16,-212,2025-01-27 14:14:40,0.0
-13764,-836,-164,-141,-23,-189,2025-01-27 14:14:40,0.0
-13940,-880,-368,-157,-176,-180,2025-01-27 14:14:40,0.0
-13796,-876,-192,-189,-309,-186,2025-01-27 14:14:40,0.0
-13968,-736,-380,-217,-414,-174,2025-01-27 14:14:40,0.0
-13824,-704,-348,-262,-498,-159,2025-01-27 14:14:40,0.0
-13904,-712,-480,-322,-577,-158,2025-01-27 14:14:40,0.0
-13900,-560,-392,-470,-708,-205,2025-01-27 14:14:41,0.0
-14132,-612,-460,-603,-983,-295,2025-01-27 14:14:41,0.0
-14016,-648,-408,-754,-1256,-288,2025-01-27 14:14:41,0.0
-13996,-812,-484,-780,-1404,-367,2025-01-27 14:14:41,0.0
-13880,-772,-496,-812,-1624,-380,2025-01-27 14:14:41,0.0
-13816,-684,-604,-860,-1827,-465,2025-01-27 14:14:41,0.0
-13776,-876,-520,-977,-1814,-429,2025-01-27 14:14:41,0.0
-13848,-808,-524,-989,-1744,-364,2025-01-27 14:14:41,0.0
-13812,-948,-688,-968,-1788,-298,2025-01-27 14:14:41,0.0
-13756,-1092,-652,-932,-1937,-307,2025-01-27 14:14:41,0.0
-13832,-1204,-868,-911,-2094,-312,2025-01-27 14:14:41,0.0
-13812,-1224,-796,-838,-2094,-323,2025-01-27 14:14:41,0.0
-13816,-1160,-852,-737,-2093,-217,2025-01-27 14:14:41,0.0
-13792,-1300,-1148,-534,-2287,-145,2025-01-27 14:14:41,0.0
-13776,-1116,-1252,-423,-2487,-42,2025-01-27 14:14:41,0.0
-13308,-1244,-1372,-453,-2544,-49,2025-01-27 14:14:41,0.0
-12692,-932,-1220,-386,-2333,-90,2025-01-27 14:14:41,0.0
-12752,-1176,-1756,-337,-1898,-193,2025-01-27 14:14:41,0.0
-12392,-1012,-2292,-379,-2238,-158,2025-01-27 14:14:41,0.0
-11592,-924,-2012,-567,-3025,94,2025-01-27 14:14:41,0.0
-10960,-992,-1368,-774,-2550,426,2025-01-27 14:14:41,0.0
-10476,-1460,-168,-872,-589,1000,2025-01-27 14:14:41,0.0
-9608,-372,-88,-227,3108,1678,2025-01-27 14:14:41,0.0
-9740,380,-1084,-776,6464,1945,2025-01-27 14:14:41,0.0
-9388,364,-1288,-1863,7879,1088,2025-01-27 14:14:41,0.0
-11452,604,1304,-2566,8344,525,2025-01-27 14:14:41,0.0
-13068,224,2948,-2878,5688,824,2025-01-27 14:14:41,0.0
-13136,-544,2988,-3186,3042,839,2025-01-27 14:14:41,
-13768,-1168,3648,-3534,1142,405,2025-01-27 14:14:41,0.0
-13884,-1652,3400,-3481,-155,269,2025-01-27 14:14:41,0.0
-12716,-2040,1932,-2903,-1465,226,2025-01-27 14:14:41,0.0
-11980,-2164,1148,-2303,-3226,563,2025-01-27 14:14:41,0.0
-11536,-1936,1364,-1889,-3814,716,2025-01-27 14:14:41,0.0
-12304,-1752,1196,-1293,-1461,863,2025-01-27 14:14:41,0.0
-13416,-1192,2044,-743,1123,937,2025-01-27 14:14:41,0.0
-14492,-616,2180,-411,1300,1042,2025-01-27 14:14:41,0.0
-15136,-4,2748,-93,-620,1219,2025-01-27 14:14:41,0.0
-15040,704,3172,114,-3974,1337,2025-01-27 14:14:41,0.0
-14680,904,2372,-11,-6273,1541,2025-01-27 14:14:41,0.0
-13936,428,2104,-335,-7618,1487,2025-01-27 14:14:41,0.0
-12320,-628,1668,-446,-6310,1074,2025-01-27 14:14:41,0.0
-13776,-1476,4396,-254,-4945,645,2025-01-27 14:14:41,0.0
-11632,-1980,2624,-82,-3538,-133,2025-01-27 14:14:41,0.0
-12592,-1144,2488,32,-2930,-982,2025-01-27 14:14:41,0.0
-14776,708,3584,-147,-3436,-830,2025-01-27 14:14:41,0.0
-15740,1944,4364,-194,-5702,-142,2025-01-27 14:14:41,0.0
-20776,1156,632,33,361,-36,2025-01-27 14:14:41,0.0
-17232,1996,6652,524,-14056,1587,2025-01-27 14:14:41,0.0
-13908,628,3776,200,-12240,1682,2025-01-27 14:14:41,0.0
-9224,-504,2932,-150,-11646,853,2025-01-27 14:14:41,0.0
-12248,952,3764,-1225,-12393,907,2025-01-27 14:14:41,0.0
-13384,1344,4504,-1760,-11700,832,2025-01-27 14:14:41,0.0
-13788,320,4376,-2129,-10213,1232,2025-01-27 14:14:41,0.0
-13880,-640,5456,-2440,-8498,1354,2025-01-27 14:14:41,0.0
-14544,-572,6520,-2520,-8842,1259,2025-01-27 14:14:41,0.0
-15356,-36,6696,-2642,-10463,1332,2025-01-27 14:14:41,0.0
-14456,584,6744,-2927,-11844,1568,2025-01-27 14:14:41,0.0
-14184,968,7512,-2656,-11491,2034,2025-01-27 14:14:41,0.0
-12372,468,7548,-2402,-9111,2509,2025-01-27 14:14:41,0.0
-12484,-544,7556,-2198,-8031,2478,2025-01-27 14:14:42,0.0
-12876,-864,8180,-2257,-7846,2256,2025-01-27 14:14:42,0.0
-12248,-1300,8564,-2791,-7689,1928,2025-01-27 14:14:42,0.0
-12232,-508,8824,-3099,-7406,1762,2025-01-27 14:14:42,0.0
-13140,428,8860,-3122,-7006,2200,2025-01-27 14:14:42,0.0
-12300,360,9596,-2942,-6860,2498,2025-01-27 14:14:42,0.0
-12504,344,9708,-2948,-7305,2488,2025-01-27 14:14:42,0.0
-12016,348,10172,-2989,-7985,2585,2025-01-27 14:14:42,0.0
-12792,804,9412,-3281,-7994,2946,2025-01-27 14:14:42,0.0
-12124,304,10200,-3238,-7471,3131,2025-01-27 14:14:42,0.0
-9700,216,7728,-3467,-6577,3061,2025-01-27 14:14:42,0.0
-12180,336,9752,-4193,-5746,2901,2025-01-27 14:14:42,0.0
-11768,376,11324,-4295,-5826,2950,2025-01-27 14:14:42,0.0
-10328,336,11100,-4412,-5982,3076,2025-01-27 14:14:42,0.0
-11056,92,11352,-4610,-6819,3165,2025-01-27 14:14:42,0.0
-12516,-188,11468,-5088,-7929,2902,2025-01-27 14:14:42,0.0
-10344,900,11036,-5615,-5946,2837,2025-01-27 14:14:42,0.0
-10440,380,11452,-5751,-4873,2987,2025-01-27 14:14:42,0.0
-9028,388,11780,-5646,-5270,3094,2025-01-27 14:14:42,0.0
-10992,-676,12808,-5487,-6487,3382,2025-01-27 14:14:42,0.0
-10440,-152,12552,-5433,-7864,3515,2025-01-27 14:14:42,0.0
-8240,-240,12012,-5587,-8253,2991,2025-01-27 14:14:42,0.0
-9556,508,12012,-5788,-7182,3352,2025-01-27 14:14:42,0.0
-10648,1080,13432,-5780,-7053,3830,2025-01-27 14:14:42,0.0
-10136,740,14080,-5679,-6783,4047,2025-01-27 14:14:42,0.0
-9496,480,14564,-5223,-8117,4104,2025-01-27 14:14:42,0.0
-8952,148,13724,-4972,-8019,3848,2025-01-27 14:14:42,0.0
-7968,1028,14572,-4631,-7988,3658,2025-01-27 14:14:42,0.0
-7368,812,14232,-3849,-7698,3350,2025-01-27 14:14:42,0.0
-7384,596,14624,-3407,-7371,3187,2025-01-27 14:14:42,0.0
-7520,56,15136,-2753,-7517,2560,2025-01-27 14:14:42,0.0
-7948,364,15532,-2415,-7278,1977,2025-01-27 14:14:42,0.0
-7932,792,16572,-1884,-7394,1610,2025-01-27 14:14:42,0.0
-8460,1136,16952,-977,-7734,1360,2025-01-27 14:14:42,0.0
-8432,1592,16960,10,-7706,1193,2025-01-27 14:14:42,0.0
-8512,1712,17208,782,-7628,975,2025-01-27 14:14:42,0.0
-7612,2236,16704,823,-7715,850,2025-01-27 14:14:42,0.0
-6688,1772,16356,744,-7668,598,2025-01-27 14:14:42,0.0
-6196,804,16352,383,-7201,120,2025-01-27 14:14:42,0.0
-5392,156,16524,280,-6916,-197,2025-01-27 14:14:42,0.0
-4600,-136,16732,321,-6770,-354,2025-01-27 14:14:42,0.0
-4228,320,16968,429,-5761,-672,2025-01-27 14:14:42,0.0
-3280,624,16676,336,-5009,-972,2025-01-27 14:14:42,0.0
-3412,992,17224,244,-3667,-1350,2025-01-27 14:14:42,0.0
-3896,1296,17352,204,-2812,-1453,2025-01-27 14:14:42,0.0
2068,4592,14244,-192,755,-1645,2025-01-27 14:14:42,0.0
-4632,1664,17264,406,-900,-1598,2025-01-27 14:14:42,0.0
-5940,2048,17536,431,-701,-1533,2025-01-27 14:14:42,0.0
-6376,2064,17312,599,-1041,-1373,2025-01-27 14:14:42,0.0
-6448,2344,17520,812,-2259,-1364,2025-01-27 14:14:42,0.0
-6204,2536,18540,813,-3705,-1119,2025-01-27 14:14:42,0.0
-5716,2588,18296,785,-4738,-885,2025-01-27 14:14:42,0.0
-3932,2052,17352,737,-3356,-725,2025-01-27 14:14:42,0.0
-4620,2060,18360,651,-5540,-121,2025-01-27 14:14:42,0.0
-4064,1904,17608,272,-5251,42,2025-01-27 14:14:42,0.0
-3964,2284,17728,-537,-5802,195,2025-01-27 14:14:42,0.0
-3604,1404,17900,-1630,-6750,226,2025-01-27 14:14:42,0.0
-2840,1136,17396,-1690,-6867,125,2025-01-27 14:14:42,0.0
-2504,780,17672,-1467,-6031,-56,2025-01-27 14:14:42,0.0
-2588,120,19584,-263,-5474,165,2025-01-27 14:14:42,0.0
-2056,692,19536,1309,-5989,536,2025-01-27 14:14:42,0.0
-876,1668,16360,576,-6049,600,2025-01-27 14:14:42,0.0
-376,1568,17624,-384,-5080,564,2025-01-27 14:14:43,0.0
296,156,18612,-375,-4198,431,2025-01-27 14:14:43,0.0
528,-296,18544,-745,-4311,165,2025-01-27 14:14:43,0.0
-108,-276,17876,-841,-4431,-122,2025-01-27 14:14:43,0.0
-916,-324,18072,-1330,-3336,-131,2025-01-27 14:14:43,0.0
-812,-344,18400,-1187,-2784,-150,2025-01-27 14:14:43,0.0
-692,-432,17976,-1118,-2963,-235,2025-01-27 14:14:43,
100,-108,17792,-1218,-2259,-222,2025-01-27 14:14:43,0.0
852,568,18244,-1471,-754,-300,2025-01-27 14:14:43,0.0
1000,952,20924,-1398,1617,-641,2025-01-27 14:14:43,0.0
-4172,-160,21792,-209,3391,-63,2025-01-27 14:14:43,0.0
-7324,-1936,18360,705,-1588,908,2025-01-27 14:14:43,0.0
-4600,-3268,18328,2673,-6665,1352,2025-01-27 14:14:43,0.0
-2200,-2592,17820,3728,-5122,1463,2025-01-27 14:14:43,0.0
-1772,-256,17584,3532,-4160,1212,2025-01-27 14:14:43,0.0
-1560,568,18156,3061,-4427,1320,2025-01-27 14:14:43,0.0
-328,1176,18996,3223,-4900,1511,2025-01-27 14:14:43,0.0
-344,2024,18408,3764,-4166,1977,2025-01-27 14:14:43,0.0
-388,1900,18796,4098,-2664,2548,2025-01-27 14:14:43,0.0
-568,1600,19644,4687,-2023,2984,2025-01-27 14:14:43,0.0
-524,1492,20000,5140,-2384,3354,2025-01-27 14:14:43,0.0
-548,1624,19772,5938,-3293,4243,2025-01-27 14:14:43,0.0
768,1552,19372,7345,-4012,5472,2025-01-27 14:14:43,0.0
168,1660,17504,8154,-3088,6588,2025-01-27 14:14:43,0.0
-1856,1372,17824,8225,-971,7295,2025-01-27 14:14:43,0.0
-1796,408,19812,7368,-912,7508,2025-01-27 14:14:43,0.0
-552,-704,19936,6420,-2728,7208,2025-01-27 14:14:43,0.0
608,-708,19220,5678,-3712,6557,2025-01-27 14:14:43,0.0
2572,1512,19024,5995,-4423,6302,2025-01-27 14:14:43,0.0
3056,2956,17444,5810,-2495,5748,2025-01-27 14:14:43,0.0
1504,4468,18628,6209,208,5903,2025-01-27 14:14:43,0.0
932,5092,18340,6364,1081,6475,2025-01-27 14:14:43,0.0
904,5652,17956,6330,997,6575,2025-01-27 14:14:43,0.0
1588,6132,17452,6445,1841,6800,2025-01-27 14:14:43,0.0
1388,6052,17520,6705,2716,6938,2025-01-27 14:14:43,0.0
952,5356,17228,6590,2355,6913,2025-01-27 14:14:43,0.0
1156,5352,16568,6691,1786,6952,2025-01-27 14:14:43,0.0
456,5420,16768,6331,1664,6814,2025-01-27 14:14:43,0.0
1464,4788,16036,5910,1433,6478,2025-01-27 14:14:43,0.0
336,4648,15488,5598,1236,6501,2025-01-27 14:14:43,0.0
2896,5356,15244,4967,1987,5918,2025-01-27 14:14:43,0.0
1668,5800,16540,4229,2835,5521,2025-01-27 14:14:43,0.0
1752,5912,17924,3954,2727,5589,2025-01-27 14:14:43,0.0
1492,5600,16372,3972,4102,5214,2025-01-27 14:14:43,0.0
1440,6432,14668,3166,3957,3803,2025-01-27 14:14:43,0.0
-976,8656,14576,1965,1687,2976,2025-01-27 14:14:43,0.0
1512,9608,14668,1652,-283,2685,2025-01-27 14:14:43,0.0
744,9024,13452,1276,-1059,3233,2025-01-27 14:14:43,0.0
1156,10316,14788,957,-994,3759,2025-01-27 14:14:43,0.0
2828,10124,14776,655,8,3794,2025-01-27 14:14:43,0.0
3084,9440,14992,126,1386,3925,2025-01-27 14:14:43,0.0
2872,9460,14952,-264,2490,3817,2025-01-27 14:14:43,0.0
2500,8792,16228,-450,2928,3700,2025-01-27 14:14:43,0.0
2404,8472,16780,-361,2592,3665,2025-01-27 14:14:43,0.0
8,8452,16772,-682,3699,3273,2025-01-27 14:14:43,0.0
3216,7704,16920,-169,1941,3781,2025-01-27 14:14:43,0.0
4844,5752,16680,-338,3345,3569,2025-01-27 14:14:43,0.0
10976,5616,14372,-128,7994,2271,2025-01-27 14:14:43,0.0
4428,6308,17080,-337,7749,1166,2025-01-27 14:14:43,0.0
252,9040,13280,-1064,7676,504,2025-01-27 14:14:43,0.0
-804,10304,14340,-2236,3368,1495,2025-01-27 14:14:44,0.0
1660,10608,15504,-2815,-204,2929,2025-01-27 14:14:44,0.0
3180,10420,15036,-2822,-28,3561,2025-01-27 14:14:44,0.0
3064,10036,13092,-2874,1584,3173,2025-01-27 14:14:44,0.0
1824,8604,15092,-3151,2232,3193,2025-01-27 14:14:44,0.0
1632,7640,14204,-3531,1944,2901,2025-01-27 14:14:44,0.0
636,9236,16492,-3298,1005,2827,2025-01-27 14:14:44,0.0
2836,9252,14912,-3868,-892,2509,2025-01-27 14:14:44,0.0
1120,10008,15056,-4642,-1293,1982,2025-01-27 14:14:44,0.0
3924,8380,15172,-5531,-434,2238,2025-01-27 14:14:44,0.0
2556,8796,15936,-5751,-581,2884,2025-01-27 14:14:44,0.0
2984,6192,16352,-6403,-249,2333,2025-01-27 14:14:44,0.0
4620,3512,17824,-5440,943,2095,2025-01-27 14:14:44,0.0
4236,3940,18032,-4310,1118,1276,2025-01-27 14:14:44,0.0
1856,5572,17996,-4133,-130,815,2025-01-27 14:14:44,0.0
2548,5348,19204,-4139,-13,1288,2025-01-27 14:14:44,0.0
4972,3776,17664,-3890,-1038,730,2025-01-27 14:14:44,0.0
4552,3828,18860,-3262,1462,-581,2025-01-27 14:14:44,0.0
4956,3112,17364,-2457,3485,-2124,2025-01-27 14:14:44,0.0
2272,3520,18984,-2336,5209,-2680,2025-01-27 14:14:44,0.0
1268,1532,20384,-2111,5863,-4124,2025-01-27 14:14:44,0.0
-1864,592,20548,-1397,4891,-5050,2025-01-27 14:14:44,0.0
-3196,3988,21568,-812,1311,-3961,2025-01-27 14:14:44,0.0
-2296,7996,20064,162,-3554,-2708,2025-01-27 14:14:44,0.0
-1108,8016,16980,-115,-6617,-1511,2025-01-27 14:14:44,0.0
1552,6864,17980,-876,-7468,-1499,2025-01-27 14:14:44,0.0
624,6472,20992,21,-5881,-1310,2025-01-27 14:14:44,0.0
-1084,3636,19692,1,-7403,-978,2025-01-27 14:14:44,0.0
-1268,3368,20668,915,-8646,-64,2025-01-27 14:14:44,0.0
96,2244,19864,3140,-10237,1433,2025-01-27 14:14:44,0.0
2772,2840,16096,4803,-11488,2181,2025-01-27 14:14:44,0.0
4736,2056,14508,4278,-12049,1968,2025-01-27 14:14:44,0.0
6436,3428,14144,4010,-9375,1450,2025-01-27 14:14:44,0.0
6328,3668,14788,2963,-6802,771,2025-01-27 14:14:44,0.0
7936,4556,15360,1553,-5471,631,2025-01-27 14:14:44,0.0
8168,5616,17824,1144,-2619,342,2025-01-27 14:14:44,0.0
6828,6120,17920,1120,-1877,89,2025-01-27 14:14:44,0.0
6540,7664,18128,1436,-3074,390,2025-01-27 14:14:44,0.0
7180,8300,15428,1623,-3042,877,2025-01-27 14:14:44,0.0
7836,8908,15096,1018,-2678,976,2025-01-27 14:14:44,0.0
7524,8456,14624,697,-2286,1272,2025-01-27 14:14:44,0.0
7404,8556,15564,1094,-1085,1599,2025-01-27 14:14:44,0.0
6272,7512,13892,1733,104,2112,2025-01-27 14:14:44,0.0
5520,8504,14820,1773,305,3093,2025-01-27 14:14:44,0.0
6252,8148,15408,1286,2937,3594,2025-01-27 14:14:44,0.0
6816,8044,17820,342,5019,3499,2025-01-27 14:14:44,0.0
4040,7364,17904,1184,5124,3760,2025-01-27 14:14:44,
4280,8316,17316,1573,5753,4205,2025-01-27 14:14:44,0.0
3484,8336,16476,523,6883,4540,2025-01-27 14:14:44,0.0
2496,8320,15972,-1523,7105,5219,2025-01-27 14:14:44,0.0
2004,6532,17696,-3886,7515,6351,2025-01-27 14:14:44,0.0
992,3168,19968,-4008,7526,6845,2025-01-27 14:14:44,0.0
-856,388,19432,-2984,4262,7299,2025-01-27 14:14:44,0.0
-540,352,19128,-2595,193,7118,2025-01-27 14:14:44,0.0
2024,3096,20396,-2450,-2880,7016,2025-01-27 14:14:44,0.0
6036,5828,20472,-1484,-1542,6820,2025-01-27 14:14:44,0.0
4156,9608,18988,-2156,424,5546,2025-01-27 14:14:44,0.0
1088,10952,11464,-2543,-1183,5001,2025-01-27 14:14:44,0.0
164,10136,11352,-5134,-3365,6919,2025-01-27 14:14:44,0.0
2980,8604,15360,-5018,-4285,6752,2025-01-27 14:14:44,0.0
5040,6816,16112,-4089,-5215,6505,2025-01-27 14:14:44,0.0
8544,7780,16340,-2585,-4944,5495,2025-01-27 14:14:45,0.0
10548,6656,17452,-4079,-221,4884,2025-01-27 14:14:45,0.0
9876,3432,17776,-4189,2323,2577,2025-01-27 14:14:45,0.0
8032,2972,18084,-4087,1233,212,2025-01-27 14:14:45,0.0
6160,4040,18272,-3950,-199,176,2025-01-27 14:14:45,0.0
6284,3624,17588,-4450,-2786,1042,2025-01-27 14:14:45,0.0
8116,2708,16804,-5910,-4023,1023,2025-01-27 14:14:45,0.0
8952,1284,18628,-7044,-3205,29,2025-01-27 14:14:45,0.0
8332,0,21568,-6212,-1948,-470,2025-01-27 14:14:45,0.0
8152,-928,23384,-2593,360,-442,2025-01-27 14:14:45,0.0
7344,568,20440,-66,1339,-699,2025-01-27 14:14:45,0.0
5608,1160,17336,-985,1919,-312,2025-01-27 14:14:45,0.0
5816,-348,17836,-1978,2090,80,2025-01-27 14:14:45,0.0
6364,-780,18228,-1525,1904,-323,2025-01-27 14:14:45,0.0
5408,-260,17056,-1036,2351,-202,2025-01-27 14:14:45,0.0
5212,356,16904,-282,3002,-3,2025-01-27 14:14:45,0.0
5272,1724,17348,374,3542,-11,2025-01-27 14:14:45,0.0
4980,2528,17352,759,3305,-152,2025-01-27 14:14:45,0.0
4280,3664,17852,1044,2581,-260,2025-01-27 14:14:45,0.0
4456,4568,17376,900,1072,111,2025-01-27 14:14:45,0.0
4460,5544,16728,295,-41,274,2025-01-27 14:14:45,0.0
4664,5012,16664,-604,156,397,2025-01-27 14:14:45,0.0
4916,5156,17768,-885,974,389,2025-01-27 14:14:45,0.0
5156,4108,17684,-1459,1809,384,2025-01-27 14:14:45,0.0
4944,3840,18528,-1745,1288,-73,2025-01-27 14:14:45,0.0
4716,3360,18148,-1881,-381,-189,2025-01-27 14:14:45,0.0
4832,3272,17640,-1976,-1967,-249,2025-01-27 14:14:45,0.0
5068,3588,17712,-1828,-3088,-121,2025-01-27 14:14:45,0.0
5052,4160,17044,-1759,-3334,366,2025-01-27 14:14:45,0.0
5368,4748,16136,-1831,-2942,978,2025-01-27 14:14:45,0.0
5868,4500,15848,-2097,-1911,1528,2025-01-27 14:14:45,0.0
5840,4480,16044,-2556,-833,1721,2025-01-27 14:14:45,0.0
5908,3716,17024,-3135,-334,1577,2025-01-27 14:14:45,0.0
5848,3524,18136,-3356,-658,1315,2025-01-27 14:14:45,0.0
5572,3676,18844,-3208,-1382,1021,2025-01-27 14:14:45,0.0
5220,3272,18760,-2815,-2265,1005,2025-01-27 14:14:45,0.0
5936,2612,18232,-2392,-3285,1113,2025-01-27 14:14:45,0.0
6368,1744,17404,-2147,-3794,1160,2025-01-27 14:14:45,0.0
7188,1088,16600,-2004,-3262,1217,2025-01-27 14:14:45,0.0
7804,220,16628,-1584,-1784,969,2025-01-27 14:14:45,0.0
8212,-352,17484,-851,-496,578,2025-01-27 14:14:45,0.0
7896,92,18024,-345,405,262,2025-01-27 14:14:45,0.0
7584,284,18140,-174,894,50,2025-01-27 14:14:45,0.0
7104,396,18760,-126,1346,-152,2025-01-27 14:14:45,0.0
6724,420,19312,-4,1736,-263,2025-01-27 14:14:45,0.0
6120,604,19864,169,1761,-449,2025-01-27 14:14:45,0.0
5504,964,19764,342,1233,-519,2025-01-27 14:14:45,0.0
5352,1160,19748,603,230,-441,2025-01-27 14:14:45,0.0
5584,1512,19044,858,-690,-320,2025-01-27 14:14:45,0.0
6148,1572,17864,880,-1153,-300,2025-01-27 14:14:45,0.0
6516,1684,17216,883,-827,-227,2025-01-27 14:14:45,0.0
6780,1704,17352,967,-52,-203,2025-01-27 14:14:45,0.0
6964,1884,17600,1010,410,-151,2025-01-27 14:14:45,0.0
6504,2528,17868,806,603,-217,2025-01-27 14:14:45,0.0
6196,2880,18008,521,304,-161,2025-01-27 14:14:45,0.0
6024,3144,17912,263,-19,-156,2025-01-27 14:14:45,0.0
6124,3092,17728,-18,-418,-173,2025-01-27 14:14:45,0.0
6276,2876,17512,-142,-584,-144,2025-01-27 14:14:45,0.0
6532,2708,17584,-253,-691,-131,2025-01-27 14:14:45,0.0
6768,2416,17504,-302,-646,-151,2025-01-27 14:14:45,0.0
6868,2332,17892,-291,-476,-117,2025-01-27 14:14:45,0.0
7148,2176,18072,-204,-234,-124,2025-01-27 14:14:46,0.0
7104,2016,18144,-139,5,-149,2025-01-27 14:14:46,0.0
7012,2108,18240,-55,149,-164,2025-01-27 14:14:46,0.0
6884,2064,17972,-14,332,-202,2025-01-27 14:14:46,0.0
6892,1960,18012,-40,451,-216,2025-01-27 14:14:46,0.0
6532,1908,17840,-99,568,-238,2025-01-27 14:14:46,0.0
6548,2048,17760,-158,595,-242,2025-01-27 14:14:46,0.0
6444,2024,17872,-159,462,-237,2025-01-27 14:14:46,0.0
6176,1932,17696,-194,374,-180,2025-01-27 14:14:46,0.0
6600,2160,17684,-216,416,-202,2025-01-27 14:14:46,0.0
6572,2256,17812,-263,628,-291,2025-01-27 14:14:46,0.0
6180,2164,17860,-295,563,-345,2025-01-27 14:14:46,0.0
6116,2156,17928,-294,192,-317,2025-01-27 14:14:46,0.0
6320,2308,17836,-267,-170,-225,2025-01-27 14:14:46,0.0
6428,2044,17696,-267,-153,-209,2025-01-27 14:14:46,0.0
6636,2048,17808,-257,-123,-201,2025-01-27 14:14:46,0.0
6480,2116,18080,-172,-205,-170,2025-01-27 14:14:46,0.0
6872,2048,18128,-83,-293,-125,2025-01-27 14:14:46,0.0
6696,2184,18448,24,-294,-69,2025-01-27 14:14:46,0.0
6828,2112,17808,-16,-75,-96,2025-01-27 14:14:46,0.0
6720,2020,17720,-46,198,-155,2025-01-27 14:14:46,0.0
6792,2072,17480,-78,422,-195,2025-01-27 14:14:46,0.0
6856,2040,17668,-29,484,-190,2025-01-27 14:14:46,0.0
6564,2292,17764,-107,483,-232,2025-01-27 14:14:46,0.0
6500,2188,17688,-104,535,-317,2025-01-27 14:14:46,
