acceleration_x,acceleration_y,acceleration_z,gyroscope_x,gyroscope_y,gyroscope_z,timestamp,label
4216,-1452,18532,-92,42,-167,2025-01-27 14:15:26,0.0
4220,-1472,18316,-130,13,-141,2025-01-27 14:15:26,0.0
4208,-1468,18380,-121,1,-143,2025-01-27 14:15:26,0.0
4216,-1468,18280,-131,1,-172,2025-01-27 14:15:26,0.0
4272,-1492,18336,-110,7,-162,2025-01-27 14:15:26,0.0
4220,-1548,18432,-123,5,-172,2025-01-27 14:15:26,0.0
4228,-1536,18412,-102,10,-173,2025-01-27 14:15:26,0.0
4272,-1440,18524,-119,35,-163,2025-01-27 14:15:26,0.0
4212,-1564,18536,-175,43,-184,2025-01-27 14:15:26,0.0
4280,-1460,18456,-96,47,-182,2025-01-27 14:15:26,0.0
4320,-1496,18588,-84,51,-165,2025-01-27 14:15:26,0.0
4220,-1456,18420,-127,71,-173,2025-01-27 14:15:26,0.0
4148,-1464,18496,-129,78,-173,2025-01-27 14:15:26,0.0
4212,-1440,18372,-144,84,-161,2025-01-27 14:15:26,0.0
4276,-1472,18400,-159,62,-169,2025-01-27 14:15:26,0.0
4296,-1524,18440,-171,37,-172,2025-01-27 14:15:26,0.0
4344,-1524,18444,-132,-17,-154,2025-01-27 14:15:26,0.0
4356,-1464,18488,-145,8,-187,2025-01-27 14:15:26,0.0
4376,-1336,18352,-142,116,-208,2025-01-27 14:15:26,0.0
4292,-1372,18584,-141,331,-166,2025-01-27 14:15:26,0.0
4020,-1568,18652,-141,30,-160,2025-01-27 14:15:26,0.0
3964,-1516,18564,-77,-280,-115,2025-01-27 14:15:26,0.0
4228,-1384,18388,-122,-307,-88,2025-01-27 14:15:26,0.0
4344,-1428,18112,-158,-293,-96,2025-01-27 14:15:26,0.0
4528,-1472,18124,-133,-235,-131,2025-01-27 14:15:26,0.0
4468,-1376,18340,-143,-140,-145,2025-01-27 14:15:26,0.0
4456,-1444,18368,-86,-80,-164,2025-01-27 14:15:26,0.0
4348,-1420,18424,-96,24,-155,2025-01-27 14:15:26,0.0
4384,-1416,18516,-123,77,-160,2025-01-27 14:15:27,0.0
4340,-1472,18336,-131,98,-180,2025-01-27 14:15:27,0.0
4272,-1456,18344,-157,145,-158,2025-01-27 14:15:27,0.0
4404,-1448,18324,-150,194,-164,2025-01-27 14:15:27,0.0
4408,-1400,18444,-152,202,-160,2025-01-27 14:15:27,0.0
4284,-1484,18476,-151,185,-144,2025-01-27 14:15:27,0.0
4424,-1484,18384,-130,116,-161,2025-01-27 14:15:27,0.0
4300,-1460,18552,-139,89,-172,2025-01-27 14:15:27,0.0
4340,-1400,18376,-136,79,-167,2025-01-27 14:15:27,0.0
4392,-1448,18380,-197,35,-174,2025-01-27 14:15:27,0.0
4276,-1516,18316,-242,28,-183,2025-01-27 14:15:27,0.0
4428,-1392,18464,-120,53,-192,2025-01-27 14:15:27,0.0
4368,-1340,18404,-93,123,-166,2025-01-27 14:15:27,0.0
4452,-1432,18384,-119,152,-183,2025-01-27 14:15:27,0.0
4428,-1340,18432,-163,203,-184,2025-01-27 14:15:27,0.0
4420,-1356,18392,-240,257,-197,2025-01-27 14:15:27,0.0
4472,-1400,18436,-236,312,-167,2025-01-27 14:15:27,0.0
4420,-1456,18532,-228,381,-177,2025-01-27 14:15:27,0.0
4476,-1440,18452,-305,580,-217,2025-01-27 14:15:27,0.0
4528,-1328,18780,-369,1105,-175,2025-01-27 14:15:27,0.0
4292,-1460,18204,-576,954,-241,2025-01-27 14:15:27,0.0
4136,-1472,18108,-613,819,-153,2025-01-27 14:15:27,0.0
4360,-1452,17604,-674,1206,-102,2025-01-27 14:15:27,0.0
4456,-1396,17716,-986,2010,-70,2025-01-27 14:15:27,0.0
4304,-1164,18072,-1029,2799,-102,2025-01-27 14:15:27,0.0
4256,-1088,18452,-1040,2767,-138,2025-01-27 14:15:27,0.0
4232,-1144,18804,-1176,1975,-131,2025-01-27 14:15:27,0.0
4324,-1504,18492,-1183,1315,-165,2025-01-27 14:15:27,0.0
3952,-1588,18616,-920,1654,-186,2025-01-27 14:15:27,0.0
3680,-1424,18508,-666,2716,-161,2025-01-27 14:15:27,0.0
3196,-1520,18568,-744,3552,-124,2025-01-27 14:15:27,0.0
3088,-1704,18944,-1018,3056,-116,2025-01-27 14:15:27,0.0
2968,-1944,18648,-995,1952,17,2025-01-27 14:15:27,0.0
3176,-2316,18520,-808,967,-47,2025-01-27 14:15:27,0.0
3656,-2764,18128,-601,677,-220,2025-01-27 14:15:27,0.0
4084,-2756,17964,-453,1221,-331,2025-01-27 14:15:27,0.0
4184,-2440,17692,-401,2312,-420,2025-01-27 14:15:27,0.0
4196,-2540,17600,-275,3538,-494,2025-01-27 14:15:27,0.0
4092,-2756,17632,-226,4354,-541,2025-01-27 14:15:27,0.0
4352,-3332,17108,-445,4451,-861,2025-01-27 14:15:27,0.0
4076,-3804,16420,-638,4640,-1364,2025-01-27 14:15:27,0.0
2960,-3744,17456,-359,6290,-1685,2025-01-27 14:15:27,0.0
1128,-2512,18932,419,8951,-1360,2025-01-27 14:15:27,0.0
164,-900,19804,857,9735,-932,2025-01-27 14:15:27,0.0
-64,144,20048,473,7599,-1018,2025-01-27 14:15:27,0.0
-500,872,19872,-263,4108,-1041,2025-01-27 14:15:27,0.0
-100,732,19552,-705,1485,-969,2025-01-27 14:15:27,0.0
424,228,19088,-683,678,-783,2025-01-27 14:15:27,0.0
1060,-212,18676,-471,906,-386,2025-01-27 14:15:27,0.0
1156,-660,17788,-190,1188,386,2025-01-27 14:15:27,0.0
972,-1020,17784,-33,1764,1078,2025-01-27 14:15:27,0.0
1064,-1096,18032,-74,2010,1511,2025-01-27 14:15:27,0.0
1564,-1488,18516,-116,2490,1416,2025-01-27 14:15:27,0.0
1756,-1568,17960,-388,2660,1038,2025-01-27 14:15:27,0.0
1280,-2196,17556,-332,2333,859,2025-01-27 14:15:27,0.0
816,-2700,17504,-132,2209,1026,2025-01-27 14:15:27,0.0
708,-3168,18128,138,2258,1169,2025-01-27 14:15:27,0.0
808,-3192,18100,196,2562,1084,2025-01-27 14:15:27,0.0
848,-3388,18608,-77,2928,559,2025-01-27 14:15:27,0.0
956,-3356,18944,9,2431,51,2025-01-27 14:15:27,0.0
956,-3656,18164,214,1866,-514,2025-01-27 14:15:27,0.0
484,-3812,17388,7,530,-1105,2025-01-27 14:15:28,0.0
1212,-4328,17072,-349,-576,-1525,2025-01-27 14:15:28,0.0
-124,-4800,18448,-837,-817,-2326,2025-01-27 14:15:28,0.0
-340,-3928,18880,-1620,-258,-2991,2025-01-27 14:15:28,0.0
-1396,-540,20420,-1606,75,-3797,2025-01-27 14:15:28,0.0
-2372,2548,20560,-1957,-2301,-3632,2025-01-27 14:15:28,0.0
-1388,3468,19436,-3219,-5518,-2911,2025-01-27 14:15:28,0.0
84,1972,18436,-4505,-6762,-1602,2025-01-27 14:15:28,0.0
1416,2672,18292,-5184,-5767,-633,2025-01-27 14:15:28,0.0
2148,2224,18300,-6014,-4158,152,2025-01-27 14:15:28,0.0
2552,416,17504,-6455,-3463,995,2025-01-27 14:15:28,
2176,-900,17272,-5939,-2018,2185,2025-01-27 14:15:28,0.0
2164,-1640,16072,-6120,-771,3433,2025-01-27 14:15:28,0.0
2192,-3220,17392,-6267,615,3981,2025-01-27 14:15:28,0.0
948,-5100,18472,-6259,1528,4086,2025-01-27 14:15:28,0.0
416,-5960,18736,-5998,463,4252,2025-01-27 14:15:28,0.0
568,-6328,18888,-5776,-870,4043,2025-01-27 14:15:28,0.0
1420,-6640,17848,-5674,-2704,3758,2025-01-27 14:15:28,0.0
3420,-7344,17848,-5297,-4405,3775,2025-01-27 14:15:28,0.0
3360,-6948,17176,-4731,-2851,3870,2025-01-27 14:15:28,0.0
3380,-6620,17420,-4704,-2013,3455,2025-01-27 14:15:28,0.0
1704,-6376,18760,-4257,-3529,3926,2025-01-27 14:15:28,0.0
2572,-5996,18404,-3173,-5728,3667,2025-01-27 14:15:28,0.0
3528,-5940,18252,-2854,-7879,3621,2025-01-27 14:15:28,0.0
3312,-5748,16392,-2689,-8603,3797,2025-01-27 14:15:28,0.0
3216,-4896,16336,-2579,-9937,4034,2025-01-27 14:15:28,0.0
2824,-6476,17248,-2116,-9337,5214,2025-01-27 14:15:28,0.0
4500,-7004,18980,-683,-7935,6071,2025-01-27 14:15:28,0.0
4200,-6708,17548,98,-8196,5504,2025-01-27 14:15:28,0.0
4524,-7056,18028,917,-9484,5009,2025-01-27 14:15:28,0.0
3344,-6564,17672,2244,-10049,4647,2025-01-27 14:15:28,0.0
6676,-6268,18324,3004,-9163,5184,2025-01-27 14:15:28,0.0
8924,-6140,18348,2871,-9811,5396,2025-01-27 14:15:28,0.0
5512,-6276,18736,2746,-12977,4983,2025-01-27 14:15:28,0.0
4824,-6436,17976,3041,-13606,5127,2025-01-27 14:15:28,0.0
3812,-6252,16124,2800,-10047,5260,2025-01-27 14:15:28,0.0
9668,-6524,17672,2169,-14043,4213,2025-01-27 14:15:28,0.0
9668,-5964,17424,1886,-10143,4072,2025-01-27 14:15:28,0.0
8432,-6444,17240,1283,-7684,3224,2025-01-27 14:15:28,0.0
6712,-5552,18376,1651,-6470,3614,2025-01-27 14:15:28,0.0
4000,-4096,19276,3423,-6505,3955,2025-01-27 14:15:28,0.0
7352,-4168,18756,3801,-7903,3691,2025-01-27 14:15:28,0.0
5596,-3412,17736,3638,-6839,3555,2025-01-27 14:15:28,0.0
2336,-1212,18464,3495,-2914,3658,2025-01-27 14:15:28,0.0
3972,-956,16196,3206,-1321,2993,2025-01-27 14:15:28,0.0
3500,-884,16132,2376,-1145,2875,2025-01-27 14:15:28,0.0
5204,-2548,15396,1859,182,3096,2025-01-27 14:15:28,0.0
6952,-4200,16652,1454,794,2712,2025-01-27 14:15:28,0.0
8468,-5616,18532,938,-1806,1515,2025-01-27 14:15:28,0.0
7228,-6372,19060,1354,-3524,1064,2025-01-27 14:15:28,0.0
6600,-5672,17208,863,-4488,721,2025-01-27 14:15:28,0.0
7372,-4172,16072,390,-2922,271,2025-01-27 14:15:28,0.0
7752,-3436,16736,264,-1071,950,2025-01-27 14:15:28,0.0
9044,-3656,16648,199,-897,1447,2025-01-27 14:15:28,0.0
9920,-3596,15680,329,944,1740,2025-01-27 14:15:28,0.0
7436,-2252,16944,52,3852,2064,2025-01-27 14:15:28,0.0
8184,-1388,18808,-219,4778,2323,2025-01-27 14:15:28,0.0
8280,-2536,19232,50,4356,2265,2025-01-27 14:15:28,0.0
7868,-2968,18868,410,3627,2545,2025-01-27 14:15:28,0.0
9064,-2716,16728,254,2459,2786,2025-01-27 14:15:28,0.0
8656,-3280,15856,-547,2913,2837,2025-01-27 14:15:29,0.0
8484,-4084,15968,-1204,2934,2829,2025-01-27 14:15:29,0.0
7512,-5224,15180,-1423,3227,2814,2025-01-27 14:15:29,0.0
6164,-6052,16768,-1384,3936,2802,2025-01-27 14:15:29,0.0
6408,-5692,17308,-1190,4191,2678,2025-01-27 14:15:29,0.0
6136,-4904,17740,-1304,4032,2568,2025-01-27 14:15:29,0.0
7032,-4456,16524,-1667,3177,2384,2025-01-27 14:15:29,0.0
6388,-4912,16952,-2091,3302,2238,2025-01-27 14:15:29,0.0
7024,-4936,17084,-2291,3717,2182,2025-01-27 14:15:29,0.0
6192,-5408,18956,-1851,4690,1774,2025-01-27 14:15:29,0.0
7076,-4516,17740,-1625,5055,1507,2025-01-27 14:15:29,0.0
4768,-5096,19860,-1287,4734,1128,2025-01-27 14:15:29,0.0
5172,-5004,19440,-1596,4082,812,2025-01-27 14:15:29,0.0
6100,-4596,18676,-2179,2911,463,2025-01-27 14:15:29,0.0
6456,-4060,16788,-3300,3024,525,2025-01-27 14:15:29,0.0
5268,-3916,17064,-3531,5430,1249,2025-01-27 14:15:29,0.0
5092,-3848,19280,-3238,6861,1976,2025-01-27 14:15:29,0.0
4108,-3872,21568,-2918,5504,2649,2025-01-27 14:15:29,0.0
3944,-3216,21144,-2793,3091,3085,2025-01-27 14:15:29,0.0
3908,-2744,18644,-2949,1386,3780,2025-01-27 14:15:29,0.0
4368,-2812,17028,-2882,1275,4782,2025-01-27 14:15:29,0.0
3544,-4264,16824,-2860,2726,6014,2025-01-27 14:15:29,0.0
8660,-5076,16516,-2556,1588,6844,2025-01-27 14:15:29,0.0
4220,-7156,19536,-1841,1789,7210,2025-01-27 14:15:29,0.0
5992,-7632,18492,-163,-512,7649,2025-01-27 14:15:29,0.0
4488,-9468,19612,1786,-1910,8570,2025-01-27 14:15:29,0.0
6852,-9528,18316,3430,-2746,9274,2025-01-27 14:15:29,0.0
8556,-11168,20096,4875,-1401,9425,2025-01-27 14:15:29,0.0
9920,-11912,17772,4813,1357,8258,2025-01-27 14:15:29,0.0
7800,-8320,18660,3686,3608,8272,2025-01-27 14:15:29,0.0
5304,-5780,23376,4185,5403,9012,2025-01-27 14:15:29,0.0
6084,-7036,21036,4583,7533,9422,2025-01-27 14:15:29,0.0
5604,-7052,18900,3606,9093,9148,2025-01-27 14:15:29,0.0
4856,-8792,19676,1845,9477,8056,2025-01-27 14:15:29,0.0
3752,-7600,20160,833,9423,6767,2025-01-27 14:15:29,0.0
3008,-6404,19832,734,8833,6213,2025-01-27 14:15:29,0.0
2188,-5412,19748,1228,7621,5787,2025-01-27 14:15:29,0.0
792,-5320,17924,1774,6502,5589,2025-01-27 14:15:29,0.0
1660,-5348,17416,1462,8265,5442,2025-01-27 14:15:29,0.0
1892,-4256,17044,584,9297,4921,2025-01-27 14:15:29,0.0
264,-3644,17436,349,9630,4357,2025-01-27 14:15:29,0.0
-2988,-3828,18864,-63,10156,4006,2025-01-27 14:15:29,0.0
-1864,-3548,16664,156,10136,3847,2025-01-27 14:15:29,0.0
-2640,-3944,16732,538,9916,4339,2025-01-27 14:15:29,0.0
-2736,-4428,16492,380,9934,4807,2025-01-27 14:15:29,0.0
-4832,-4076,17040,222,9992,5312,2025-01-27 14:15:29,0.0
-4464,-3856,16856,-45,10230,5455,2025-01-27 14:15:29,0.0
-5176,-4292,16884,-212,10319,5716,2025-01-27 14:15:29,0.0
-6196,-4672,17576,-291,9638,5836,2025-01-27 14:15:29,0.0
-5280,-4448,16404,-654,9345,5863,2025-01-27 14:15:29,0.0
-5616,-4292,16380,-871,9992,5942,2025-01-27 14:15:29,
-5404,-4904,15216,-1005,13767,6100,2025-01-27 14:15:29,0.0
-5184,-4620,15068,-794,12519,6023,2025-01-27 14:15:29,0.0
-6728,-4188,15424,-1390,12353,5870,2025-01-27 14:15:29,0.0
-7280,-3816,15384,-1644,12218,6036,2025-01-27 14:15:29,0.0
-7756,-3484,15384,-1726,12354,6218,2025-01-27 14:15:29,0.0
-7896,-3116,15284,-1753,12186,6189,2025-01-27 14:15:29,0.0
-8444,-2984,15544,-1580,11933,6211,2025-01-27 14:15:29,0.0
-8764,-3148,15044,-1617,12549,6063,2025-01-27 14:15:29,0.0
-10848,-2788,13984,-1946,14101,6171,2025-01-27 14:15:29,0.0
-9692,-2272,13292,-2332,14433,6517,2025-01-27 14:15:30,0.0
-9708,-1840,13520,-2422,13809,6805,2025-01-27 14:15:30,0.0
-8620,-1804,12240,-2261,13191,6644,2025-01-27 14:15:30,0.0
-9032,-1908,11736,-2230,13330,6637,2025-01-27 14:15:30,0.0
-10024,-1704,11244,-2211,14000,6554,2025-01-27 14:15:30,0.0
-11024,-1724,10756,-2143,16126,6676,2025-01-27 14:15:30,0.0
-11028,-1972,10096,-2354,18190,6318,2025-01-27 14:15:30,0.0
-10880,-1720,10296,-2677,19627,5576,2025-01-27 14:15:30,0.0
-12096,-956,10368,-2911,20578,5154,2025-01-27 14:15:30,0.0
-11928,-664,9536,-3077,20310,4910,2025-01-27 14:15:30,0.0
-12832,120,8780,-3217,19006,4730,2025-01-27 14:15:30,0.0
-13768,188,8172,-3069,17771,4635,2025-01-27 14:15:30,0.0
-12920,-268,7212,-3005,14357,4605,2025-01-27 14:15:30,0.0
-13236,-396,7112,-3124,9548,5030,2025-01-27 14:15:30,0.0
-11564,-844,7428,-3254,4881,5036,2025-01-27 14:15:30,0.0
-10212,-1340,7692,-2948,651,3915,2025-01-27 14:15:30,0.0
-10916,-1264,7272,-2685,-2486,2881,2025-01-27 14:15:30,0.0
-11024,-1060,6176,-2429,-4043,2320,2025-01-27 14:15:30,0.0
-10904,-776,5320,-2140,-3733,2158,2025-01-27 14:15:30,0.0
-10476,-84,5424,-1529,-1218,2117,2025-01-27 14:15:30,0.0
-9948,376,5136,-1267,1646,1952,2025-01-27 14:15:30,0.0
-9780,184,4940,-1257,4147,1674,2025-01-27 14:15:30,0.0
-9828,-560,5164,-1362,6020,948,2025-01-27 14:15:30,0.0
-10196,-1452,5560,-1012,7580,216,2025-01-27 14:15:30,0.0
-10820,-1520,5768,-438,8743,-165,2025-01-27 14:15:30,0.0
-11492,-1164,5844,153,9088,-98,2025-01-27 14:15:30,0.0
-11092,-576,5988,896,7623,30,2025-01-27 14:15:30,0.0
-11260,-848,4980,1741,3188,136,2025-01-27 14:15:30,0.0
-11020,-856,3860,1690,-14,35,2025-01-27 14:15:30,0.0
-10308,-580,3412,1141,-1726,-309,2025-01-27 14:15:30,0.0
-10172,-296,2824,170,-2145,-875,2025-01-27 14:15:30,0.0
-10732,184,2320,-605,-867,-1081,2025-01-27 14:15:30,0.0
-11160,584,2316,-1139,1561,-1242,2025-01-27 14:15:30,0.0
-12120,844,2960,-1645,4836,-1327,2025-01-27 14:15:30,0.0
-12752,808,3616,-2070,8142,-1404,2025-01-27 14:15:30,0.0
-13020,784,3916,-2294,9701,-1696,2025-01-27 14:15:30,0.0
-13976,412,4168,-2809,9470,-1732,2025-01-27 14:15:30,0.0
-14392,-440,4548,-3470,7480,-1666,2025-01-27 14:15:30,0.0
-14524,-936,4472,-3840,3982,-1679,2025-01-27 14:15:30,0.0
-14708,-1612,4072,-3845,33,-1584,2025-01-27 14:15:30,0.0
-14252,-1924,3800,-3466,-2508,-1202,2025-01-27 14:15:30,0.0
-13964,-2096,3084,-2612,-3554,-844,2025-01-27 14:15:30,0.0
-13644,-2308,976,-1864,-2672,-393,2025-01-27 14:15:30,0.0
-13088,-2584,332,-1694,622,-176,2025-01-27 14:15:30,0.0
-13192,-2728,1740,-1186,4781,-572,2025-01-27 14:15:30,0.0
-14544,-2148,3256,-228,8449,-786,2025-01-27 14:15:30,0.0
-15384,-1568,4252,382,9047,-681,2025-01-27 14:15:30,0.0
-15012,-1320,4940,734,7051,-514,2025-01-27 14:15:30,0.0
-15164,-1272,4652,1036,3244,-430,2025-01-27 14:15:30,0.0
-15088,-980,4012,985,-879,-306,2025-01-27 14:15:30,0.0
-14544,-992,3596,750,-3257,-264,2025-01-27 14:15:30,0.0
-13940,-1040,3432,751,-3196,-180,2025-01-27 14:15:30,0.0
-13296,-1304,3248,977,-1980,-125,2025-01-27 14:15:30,0.0
-12732,-1380,3052,1139,-510,-72,2025-01-27 14:15:30,0.0
-12308,-1280,2888,982,1046,-202,2025-01-27 14:15:30,0.0
-12100,-840,3280,976,1250,-637,2025-01-27 14:15:30,0.0
-13148,-588,2732,633,1861,-583,2025-01-27 14:15:30,0.0
-14376,-876,2300,157,3612,-84,2025-01-27 14:15:30,0.0
-14972,-848,2872,-220,4815,174,2025-01-27 14:15:30,0.0
-14660,-1220,3604,-386,4070,60,2025-01-27 14:15:30,0.0
-13964,-1636,3504,-525,1459,-317,2025-01-27 14:15:30,0.0
-14552,-1452,3472,-583,-1060,-343,2025-01-27 14:15:31,0.0
-14120,-1228,3104,-567,-2062,-104,2025-01-27 14:15:31,0.0
-13508,-1024,2636,-705,-1805,32,2025-01-27 14:15:31,0.0
-13424,-1464,2160,-733,-120,107,2025-01-27 14:15:31,0.0
-13468,-1840,2160,-584,1405,-5,2025-01-27 14:15:31,0.0
-13744,-1868,2876,-393,1834,-187,2025-01-27 14:15:31,0.0
-13896,-1776,3564,-264,1158,-239,2025-01-27 14:15:31,0.0
-13788,-1764,3696,-105,200,-278,2025-01-27 14:15:31,0.0
-13852,-1592,3256,132,-394,-243,2025-01-27 14:15:31,0.0
-13452,-1492,2636,198,-267,-257,2025-01-27 14:15:31,0.0
-13436,-1476,2404,198,596,-338,2025-01-27 14:15:31,0.0
-13572,-1376,2616,216,1339,-406,2025-01-27 14:15:31,0.0
-13852,-1408,2804,233,1420,-394,2025-01-27 14:15:31,0.0
-14220,-1440,2844,262,924,-350,2025-01-27 14:15:31,0.0
-14220,-1584,2752,234,376,-224,2025-01-27 14:15:31,0.0
-13972,-1524,2924,262,4,-151,2025-01-27 14:15:31,0.0
-13580,-1472,3084,185,138,-220,2025-01-27 14:15:31,0.0
-13664,-1460,2808,191,416,-265,2025-01-27 14:15:31,0.0
-13800,-1480,2628,260,446,-197,2025-01-27 14:15:31,0.0
-13820,-1552,2652,230,383,-226,2025-01-27 14:15:31,0.0
-13836,-1332,2512,155,302,-237,2025-01-27 14:15:31,0.0
-13736,-1432,2700,14,192,-240,2025-01-27 14:15:31,0.0
-13828,-1328,2720,-103,147,-220,2025-01-27 14:15:31,0.0
-13788,-1372,2704,-146,192,-225,2025-01-27 14:15:31,0.0
-13784,-1368,2584,-167,402,-186,2025-01-27 14:15:31,0.0
-13792,-1432,2692,-176,525,-172,2025-01-27 14:15:31,0.0
-13844,-1480,2648,-178,449,-139,2025-01-27 14:15:31,0.0
-13860,-1624,2888,-167,329,-158,2025-01-27 14:15:31,0.0
-13820,-1516,2728,-133,222,-179,2025-01-27 14:15:31,0.0
-13616,-1620,2728,-135,169,-200,2025-01-27 14:15:31,
