acceleration_x,acceleration_y,acceleration_z,gyroscope_x,gyroscope_y,gyroscope_z,timestamp,label
17980,-852,7124,75,145,-171,2025-01-27 13:58:43,0.0
17952,-900,7284,122,83,-114,2025-01-27 13:58:43,0.0
18144,-944,7260,115,189,-81,2025-01-27 13:58:43,0.0
18072,-880,7144,175,224,-72,2025-01-27 13:58:44,0.0
18164,-972,7112,173,183,-113,2025-01-27 13:58:44,0.0
18080,-1020,6964,189,136,-141,2025-01-27 13:58:44,0.0
18080,-872,7188,176,118,-138,2025-01-27 13:58:44,0.0
18132,-1024,7208,176,104,-135,2025-01-27 13:58:44,0.0
17988,-1056,7228,136,157,-149,2025-01-27 13:58:44,0.0
18120,-1040,7092,94,159,-124,2025-01-27 13:58:44,0.0
18236,-1072,7032,22,113,-132,2025-01-27 13:58:44,0.0
18256,-1036,7056,-17,122,-138,2025-01-27 13:58:44,0.0
18236,-1112,6928,-78,167,-184,2025-01-27 13:58:44,0.0
18284,-1000,7044,-97,115,-183,2025-01-27 13:58:44,0.0
18192,-1116,6964,-115,27,-185,2025-01-27 13:58:44,0.0
18156,-952,6904,-118,-81,-186,2025-01-27 13:58:44,0.0
18164,-904,7004,-108,-96,-204,2025-01-27 13:58:44,0.0
18112,-936,6848,-136,-116,-187,2025-01-27 13:58:44,0.0
18080,-876,6892,-95,-100,-178,2025-01-27 13:58:44,0.0
18140,-932,7004,-78,-54,-193,2025-01-27 13:58:44,0.0
18072,-888,7028,-75,-21,-132,2025-01-27 13:58:44,0.0
18044,-952,6864,-49,35,-134,2025-01-27 13:58:44,0.0
18084,-960,6780,-63,79,-163,2025-01-27 13:58:44,0.0
18160,-984,7060,-48,133,-161,2025-01-27 13:58:44,0.0
18140,-956,7156,-48,143,-177,2025-01-27 13:58:44,0.0
18168,-896,7000,-9,175,-159,2025-01-27 13:58:44,0.0
18164,-876,6828,-34,123,-127,2025-01-27 13:58:44,0.0
18248,-928,6976,-30,119,-131,2025-01-27 13:58:44,0.0
18244,-968,6992,-73,82,-145,2025-01-27 13:58:44,0.0
18232,-932,6904,-75,33,-170,2025-01-27 13:58:44,0.0
18184,-1028,7068,-103,-6,-174,2025-01-27 13:58:44,0.0
18148,-956,6860,-89,69,-176,2025-01-27 13:58:44,0.0
18132,-960,6876,-134,-28,-150,2025-01-27 13:58:44,0.0
18068,-1012,7040,-218,-27,-173,2025-01-27 13:58:44,0.0
18132,-916,6924,-189,81,-179,2025-01-27 13:58:44,0.0
18004,-944,6952,-240,149,-166,2025-01-27 13:58:44,0.0
18112,-976,6916,-184,212,-159,2025-01-27 13:58:44,0.0
18208,-868,6872,-148,155,-185,2025-01-27 13:58:44,0.0
18240,-856,6988,-95,113,-197,2025-01-27 13:58:44,0.0
18336,-900,6992,-87,49,-167,2025-01-27 13:58:44,0.0
18296,-792,7044,-43,26,-155,2025-01-27 13:58:44,0.0
18132,-788,6972,2,21,-141,2025-01-27 13:58:44,0.0
18088,-776,6872,20,36,-122,2025-01-27 13:58:44,0.0
18140,-996,6912,106,97,-129,2025-01-27 13:58:44,0.0
18184,-868,6860,90,100,-157,2025-01-27 13:58:44,0.0
18116,-916,7088,52,73,-127,2025-01-27 13:58:44,0.0
18144,-1056,6900,22,73,-131,2025-01-27 13:58:44,0.0
18208,-964,6944,-7,77,-141,2025-01-27 13:58:44,0.0
18168,-996,6856,-14,79,-145,2025-01-27 13:58:44,0.0
18148,-916,6824,-37,47,-140,2025-01-27 13:58:44,0.0
18152,-936,6888,-42,60,-131,2025-01-27 13:58:44,0.0
18236,-992,6808,-56,110,-110,2025-01-27 13:58:44,0.0
18172,-988,6840,-70,113,-154,2025-01-27 13:58:44,0.0
18216,-900,6884,-76,121,-172,2025-01-27 13:58:44,0.0
18196,-952,6828,-83,125,-155,2025-01-27 13:58:44,0.0
18164,-980,6892,-83,149,-167,2025-01-27 13:58:44,0.0
18228,-864,6980,-109,126,-157,2025-01-27 13:58:45,0.0
18140,-956,6832,-63,154,-163,2025-01-27 13:58:45,0.0
18108,-988,6716,-91,181,-174,2025-01-27 13:58:45,0.0
18116,-1064,6704,-157,228,-158,2025-01-27 13:58:45,0.0
18204,-972,6772,-188,292,-178,2025-01-27 13:58:45,0.0
18228,-1000,6836,-176,295,-185,2025-01-27 13:58:45,0.0
18316,-920,6948,-166,179,-183,2025-01-27 13:58:45,0.0
18312,-852,6808,-221,130,-181,2025-01-27 13:58:45,0.0
18220,-952,6816,-183,95,-193,2025-01-27 13:58:45,0.0
18252,-936,6760,-212,50,-161,2025-01-27 13:58:45,0.0
18140,-896,6956,-238,139,-189,2025-01-27 13:58:45,0.0
18104,-988,6932,-255,203,-214,2025-01-27 13:58:45,0.0
18112,-880,6944,-205,188,-190,2025-01-27 13:58:45,0.0
18284,-936,6784,-224,194,-177,2025-01-27 13:58:45,0.0
18116,-896,6892,-174,135,-173,2025-01-27 13:58:45,0.0
18340,-948,6772,-219,135,-198,2025-01-27 13:58:45,0.0
18212,-880,6932,-238,195,-196,2025-01-27 13:58:45,0.0
18080,-860,6924,-228,185,-177,2025-01-27 13:58:45,0.0
18160,-796,7056,-154,253,-180,2025-01-27 13:58:45,0.0
18208,-864,6924,-183,260,-166,2025-01-27 13:58:45,0.0
18244,-900,6712,-162,235,-176,2025-01-27 13:58:45,0.0
18196,-888,7016,-168,181,-181,2025-01-27 13:58:45,0.0
18256,-912,6968,-160,151,-171,2025-01-27 13:58:45,0.0
18076,-952,7108,-174,115,-179,2025-01-27 13:58:45,0.0
18036,-908,6828,-166,117,-154,2025-01-27 13:58:45,0.0
18176,-872,6804,-143,185,-150,2025-01-27 13:58:45,0.0
18096,-956,6860,-173,218,-199,2025-01-27 13:58:45,0.0
18148,-952,6768,-191,244,-175,2025-01-27 13:58:45,0.0
18300,-912,6868,-134,219,-163,2025-01-27 13:58:45,0.0
18256,-888,6904,-138,200,-187,2025-01-27 13:58:45,0.0
18180,-904,6960,-132,162,-169,2025-01-27 13:58:45,0.0
18196,-1020,7032,-120,167,-172,2025-01-27 13:58:45,0.0
18236,-924,7060,-137,198,-188,2025-01-27 13:58:45,0.0
18152,-896,6836,-144,178,-160,2025-01-27 13:58:45,0.0
18172,-956,6828,-187,123,-187,2025-01-27 13:58:45,0.0
18208,-952,6980,-181,72,-174,2025-01-27 13:58:45,0.0
18088,-884,6772,-174,93,-160,2025-01-27 13:58:45,0.0
18156,-988,6876,-194,143,-161,2025-01-27 13:58:45,0.0
18108,-952,6972,-223,196,-184,2025-01-27 13:58:45,0.0
18180,-932,6820,-190,226,-164,2025-01-27 13:58:45,0.0
18168,-972,6980,-175,213,-185,2025-01-27 13:58:45,0.0
18256,-928,6932,-170,199,-182,2025-01-27 13:58:45,0.0
18144,-968,6956,-190,162,-176,2025-01-27 13:58:45,0.0
18200,-912,6936,-155,119,-185,2025-01-27 13:58:45,
18132,-900,6908,-145,171,-173,2025-01-27 13:58:45,0.0
18148,-860,6984,-143,306,-187,2025-01-27 13:58:45,0.0
18168,-944,6956,-134,223,-159,2025-01-27 13:58:45,0.0
18132,-996,6936,-192,104,-203,2025-01-27 13:58:45,0.0
18208,-1104,6756,-239,85,-186,2025-01-27 13:58:45,0.0
18080,-920,7024,-244,143,-184,2025-01-27 13:58:45,0.0
18100,-832,6940,-222,214,-202,2025-01-27 13:58:45,0.0
18184,-852,7068,-149,261,-182,2025-01-27 13:58:45,0.0
18220,-936,6848,-171,243,-175,2025-01-27 13:58:45,0.0
18284,-1000,6788,-154,177,-189,2025-01-27 13:58:45,0.0
18272,-984,6984,-199,137,-206,2025-01-27 13:58:45,0.0
18128,-916,7020,-169,113,-193,2025-01-27 13:58:45,0.0
18056,-940,7060,-99,94,-150,2025-01-27 13:58:45,0.0
18052,-944,6976,-102,143,-162,2025-01-27 13:58:45,0.0
18108,-928,6972,-86,123,-161,2025-01-27 13:58:45,0.0
18216,-912,7040,-94,121,-159,2025-01-27 13:58:45,0.0
18260,-976,7140,-112,134,-184,2025-01-27 13:58:45,0.0
18192,-964,7076,-130,159,-175,2025-01-27 13:58:45,0.0
18100,-924,6956,-105,180,-150,2025-01-27 13:58:45,0.0
18128,-980,6740,-123,267,-165,2025-01-27 13:58:45,0.0
18088,-944,6748,-115,345,-187,2025-01-27 13:58:45,0.0
18156,-972,6952,-148,360,-173,2025-01-27 13:58:45,0.0
18084,-904,6944,-177,290,-193,2025-01-27 13:58:45,0.0
18088,-944,6904,-174,240,-188,2025-01-27 13:58:45,0.0
18224,-804,6880,-171,290,-162,2025-01-27 13:58:45,0.0
18208,-976,7064,-136,332,-177,2025-01-27 13:58:46,0.0
18308,-936,6984,-152,312,-196,2025-01-27 13:58:46,0.0
18308,-1048,6880,-173,249,-197,2025-01-27 13:58:46,0.0
18116,-988,6904,-185,189,-181,2025-01-27 13:58:46,0.0
18108,-992,6920,-181,174,-196,2025-01-27 13:58:46,0.0
18200,-884,6796,-198,190,-177,2025-01-27 13:58:46,0.0
18132,-972,6816,-219,235,-182,2025-01-27 13:58:46,0.0
18232,-972,6772,-187,199,-173,2025-01-27 13:58:46,0.0
18176,-972,6856,-190,128,-176,2025-01-27 13:58:46,0.0
18316,-824,6904,-175,99,-199,2025-01-27 13:58:46,0.0
18228,-992,7108,-170,101,-201,2025-01-27 13:58:46,0.0
18176,-916,6884,-110,96,-181,2025-01-27 13:58:46,0.0
18124,-1012,6776,-169,135,-208,2025-01-27 13:58:46,0.0
18116,-844,6912,-148,166,-195,2025-01-27 13:58:46,0.0
18144,-876,6888,-153,181,-167,2025-01-27 13:58:46,0.0
18180,-856,6836,-136,178,-167,2025-01-27 13:58:46,0.0
18164,-864,6752,-148,152,-162,2025-01-27 13:58:46,0.0
18072,-944,6888,-134,188,-182,2025-01-27 13:58:46,0.0
18200,-904,6612,-113,246,-164,2025-01-27 13:58:46,0.0
18404,-928,6880,-139,125,-177,2025-01-27 13:58:46,0.0
18252,-988,7068,-196,91,-177,2025-01-27 13:58:46,0.0
18080,-980,6892,-216,112,-204,2025-01-27 13:58:46,0.0
18104,-876,6812,-255,207,-182,2025-01-27 13:58:46,0.0
18252,-936,6816,-260,231,-214,2025-01-27 13:58:46,0.0
18236,-944,6868,-209,251,-209,2025-01-27 13:58:46,0.0
18168,-912,6928,-233,231,-182,2025-01-27 13:58:46,0.0
18336,-896,6896,-212,188,-159,2025-01-27 13:58:46,0.0
18180,-936,6992,-203,214,-186,2025-01-27 13:58:46,0.0
18144,-856,7084,-149,217,-192,2025-01-27 13:58:46,0.0
18156,-848,7156,-119,188,-158,2025-01-27 13:58:46,0.0
18092,-800,7032,-106,248,-174,2025-01-27 13:58:46,0.0
18116,-820,6952,-95,168,-192,2025-01-27 13:58:46,0.0
18220,-828,6980,-106,163,-170,2025-01-27 13:58:46,0.0
18128,-912,7044,-132,124,-160,2025-01-27 13:58:46,0.0
18128,-984,6976,-101,140,-151,2025-01-27 13:58:46,0.0
18032,-924,6788,-119,220,-155,2025-01-27 13:58:46,0.0
18144,-988,6920,-144,253,-159,2025-01-27 13:58:46,0.0
18152,-976,6972,-172,246,-183,2025-01-27 13:58:46,0.0
18132,-988,7028,-123,235,-201,2025-01-27 13:58:46,0.0
18156,-924,6872,-143,206,-169,2025-01-27 13:58:46,0.0
18228,-884,6988,-156,181,-165,2025-01-27 13:58:46,0.0
18116,-1040,6936,-139,221,-166,2025-01-27 13:58:46,0.0
18296,-868,6940,-149,243,-167,2025-01-27 13:58:46,0.0
18152,-992,6952,-146,223,-180,2025-01-27 13:58:46,0.0
18176,-892,7128,-165,195,-179,2025-01-27 13:58:46,0.0
18224,-932,7024,-154,211,-187,2025-01-27 13:58:46,0.0
18228,-904,7052,-170,173,-144,2025-01-27 13:58:46,0.0
18064,-800,6920,-128,159,-160,2025-01-27 13:58:46,0.0
18168,-812,6940,-146,199,-177,2025-01-27 13:58:46,0.0
18164,-912,6892,-130,165,-165,2025-01-27 13:58:46,0.0
18104,-936,6864,-144,194,-189,2025-01-27 13:58:46,0.0
18124,-1040,7028,-133,154,-185,2025-01-27 13:58:46,0.0
18152,-912,7012,-157,194,-176,2025-01-27 13:58:46,0.0
18160,-860,6868,-121,234,-195,2025-01-27 13:58:46,0.0
18116,-928,7088,-129,238,-176,2025-01-27 13:58:46,0.0
18168,-864,7016,-143,234,-182,2025-01-27 13:58:46,0.0
18200,-956,7056,-138,199,-171,2025-01-27 13:58:46,0.0
18176,-880,7040,-169,160,-169,2025-01-27 13:58:46,0.0
18172,-1032,7068,-154,170,-159,2025-01-27 13:58:46,0.0
18012,-916,7048,-167,231,-170,2025-01-27 13:58:46,0.0
18032,-904,6956,-99,301,-173,2025-01-27 13:58:47,0.0
18248,-1012,7080,-150,185,-156,2025-01-27 13:58:47,0.0
18300,-984,7204,-178,90,-189,2025-01-27 13:58:47,0.0
18116,-1084,7040,-213,82,-213,2025-01-27 13:58:47,0.0
18060,-936,7080,-222,166,-182,2025-01-27 13:58:47,0.0
18044,-920,6912,-206,215,-189,2025-01-27 13:58:47,0.0
18140,-848,6880,-211,288,-184,2025-01-27 13:58:47,0.0
18252,-948,6980,-218,298,-183,2025-01-27 13:58:47,0.0
18176,-936,6916,-190,240,-170,2025-01-27 13:58:47,0.0
18288,-892,7060,-195,209,-197,2025-01-27 13:58:47,0.0
18116,-860,7164,-155,121,-147,2025-01-27 13:58:47,0.0
18096,-808,7132,-104,168,-167,2025-01-27 13:58:47,0.0
18152,-924,6848,-113,209,-193,2025-01-27 13:58:47,0.0
18032,-948,6996,-130,193,-169,2025-01-27 13:58:47,0.0
18080,-900,7004,-135,176,-174,2025-01-27 13:58:47,
18220,-924,7176,-131,162,-164,2025-01-27 13:58:47,0.0
18120,-820,6988,-151,152,-145,2025-01-27 13:58:47,0.0
18148,-864,6860,-177,214,-145,2025-01-27 13:58:47,0.0
18216,-1044,7032,-150,235,-198,2025-01-27 13:58:47,0.0
18148,-1076,7068,-155,245,-189,2025-01-27 13:58:47,0.0
18132,-952,7044,-175,218,-182,2025-01-27 13:58:47,0.0
18116,-964,6984,-180,208,-178,2025-01-27 13:58:47,0.0
18184,-800,7036,-202,194,-185,2025-01-27 13:58:47,0.0
18180,-912,7128,-163,168,-160,2025-01-27 13:58:47,0.0
18192,-904,6944,-152,198,-166,2025-01-27 13:58:47,0.0
18096,-932,6960,-174,160,-169,2025-01-27 13:58:47,0.0
18180,-944,7064,-204,146,-194,2025-01-27 13:58:47,0.0
18092,-876,6944,-185,184,-172,2025-01-27 13:58:47,0.0
18156,-924,6956,-197,161,-150,2025-01-27 13:58:47,0.0
18156,-904,6956,-166,131,-170,2025-01-27 13:58:47,0.0
18164,-908,7044,-171,152,-185,2025-01-27 13:58:47,0.0
18196,-824,7128,-160,172,-184,2025-01-27 13:58:47,0.0
18064,-1040,6972,-108,189,-216,2025-01-27 13:58:47,0.0
18100,-876,6996,-131,200,-159,2025-01-27 13:58:47,0.0
18120,-956,6964,-158,225,-166,2025-01-27 13:58:47,0.0
18060,-900,7088,-130,228,-174,2025-01-27 13:58:47,0.0
18204,-960,6968,-156,232,-173,2025-01-27 13:58:47,0.0
18200,-920,7132,-121,207,-200,2025-01-27 13:58:47,0.0
18108,-900,7128,-130,240,-181,2025-01-27 13:58:47,0.0
18120,-948,6900,-115,157,-163,2025-01-27 13:58:47,0.0
18100,-912,7136,-134,185,-204,2025-01-27 13:58:47,0.0
18148,-936,6924,-140,201,-178,2025-01-27 13:58:47,0.0
18068,-812,6944,-117,261,-158,2025-01-27 13:58:47,0.0
18136,-768,6944,-121,260,-164,2025-01-27 13:58:47,0.0
18156,-1024,7056,-192,126,-184,2025-01-27 13:58:47,0.0
18056,-1064,7020,-260,145,-207,2025-01-27 13:58:47,0.0
17972,-980,7216,-236,201,-204,2025-01-27 13:58:47,0.0
18160,-880,7020,-230,314,-199,2025-01-27 13:58:47,0.0
18296,-884,6960,-178,316,-185,2025-01-27 13:58:47,0.0
18208,-828,6948,-163,212,-196,2025-01-27 13:58:47,0.0
18280,-816,6928,-185,121,-164,2025-01-27 13:58:47,0.0
18172,-928,6984,-165,155,-160,2025-01-27 13:58:47,0.0
18208,-920,7144,-149,170,-189,2025-01-27 13:58:47,0.0
18116,-888,7184,-132,198,-190,2025-01-27 13:58:47,0.0
18140,-848,6976,-97,208,-197,2025-01-27 13:58:47,0.0
18204,-892,7152,-103,211,-177,2025-01-27 13:58:47,0.0
18228,-880,7068,-146,152,-152,2025-01-27 13:58:47,0.0
18168,-888,6928,-128,145,-176,2025-01-27 13:58:47,0.0
18156,-964,7088,-164,134,-158,2025-01-27 13:58:47,0.0
18064,-956,7100,-159,152,-163,2025-01-27 13:58:47,0.0
18052,-960,7060,-153,227,-161,2025-01-27 13:58:47,0.0
18096,-948,6936,-164,240,-182,2025-01-27 13:58:47,0.0
18184,-884,7112,-140,249,-184,2025-01-27 13:58:47,0.0
18128,-920,7188,-135,212,-182,2025-01-27 13:58:48,0.0
18060,-896,7132,-139,160,-178,2025-01-27 13:58:48,0.0
18152,-884,7040,-147,150,-199,2025-01-27 13:58:48,0.0
18112,-844,7076,-159,157,-190,2025-01-27 13:58:48,0.0
18072,-904,7036,-153,176,-179,2025-01-27 13:58:48,0.0
18080,-864,7148,-183,170,-177,2025-01-27 13:58:48,0.0
18128,-908,7080,-176,171,-172,2025-01-27 13:58:48,0.0
18144,-916,7224,-175,184,-176,2025-01-27 13:58:48,0.0
18100,-908,7004,-144,164,-177,2025-01-27 13:58:48,0.0
18096,-820,7112,-122,214,-189,2025-01-27 13:58:48,0.0
18096,-960,6936,-165,200,-192,2025-01-27 13:58:48,0.0
18072,-900,7004,-140,264,-184,2025-01-27 13:58:48,0.0
18140,-980,7044,-144,322,-174,2025-01-27 13:58:48,0.0
18140,-912,7072,-146,489,-217,2025-01-27 13:58:48,0.0
18124,-904,7200,-167,916,-270,2025-01-27 13:58:48,0.0
18060,-932,7340,-261,1332,-361,2025-01-27 13:58:48,0.0
18140,-812,7456,-325,1640,-455,2025-01-27 13:58:48,0.0
18004,-888,7756,-260,1631,-357,2025-01-27 13:58:48,0.0
18196,-828,7708,-276,1540,-326,2025-01-27 13:58:48,0.0
18348,-1168,7920,-483,1099,-411,2025-01-27 13:58:48,0.0
18344,-1424,8144,-783,510,-375,2025-01-27 13:58:48,0.0
18316,-1536,8344,-1144,-253,-234,2025-01-27 13:58:48,0.0
18224,-1404,8424,-1457,-874,-128,2025-01-27 13:58:48,0.0
18176,-1320,8268,-1708,-1188,-199,2025-01-27 13:58:48,0.0
17908,-1124,8508,-1893,-1283,-313,2025-01-27 13:58:48,0.0
17684,-832,8424,-1843,-1203,-452,2025-01-27 13:58:48,0.0
17652,-676,8288,-1730,-1119,-547,2025-01-27 13:58:48,0.0
17608,-792,8356,-1731,-1111,-584,2025-01-27 13:58:48,0.0
17680,-860,8404,-1657,-1245,-564,2025-01-27 13:58:48,0.0
17812,-780,8652,-1667,-1515,-582,2025-01-27 13:58:48,0.0
17716,-784,8856,-1564,-1765,-690,2025-01-27 13:58:48,0.0
17560,-848,8700,-1482,-2012,-836,2025-01-27 13:58:48,0.0
17116,-1004,8920,-1398,-2234,-995,2025-01-27 13:58:48,0.0
16468,-884,8756,-1230,-2276,-1046,2025-01-27 13:58:48,0.0
16020,-652,8848,-1243,-1961,-1002,2025-01-27 13:58:48,0.0
15244,-560,8900,-1134,-1083,-850,2025-01-27 13:58:48,0.0
14756,-480,8804,-1048,152,-632,2025-01-27 13:58:48,0.0
14268,-504,8684,-1034,1829,-527,2025-01-27 13:58:48,0.0
14240,-428,8464,-999,3459,-504,2025-01-27 13:58:48,0.0
14076,-552,8828,-923,5082,-543,2025-01-27 13:58:48,0.0
14164,-516,9360,-842,6434,-552,2025-01-27 13:58:48,0.0
14448,-488,9704,-557,7529,-542,2025-01-27 13:58:48,0.0
14376,-320,9468,-457,8069,-566,2025-01-27 13:58:48,0.0
14536,-492,9596,-238,8026,-471,2025-01-27 13:58:48,0.0
15696,-404,8684,64,7624,-414,2025-01-27 13:58:48,0.0
15128,-532,8120,448,7166,-319,2025-01-27 13:58:48,0.0
14892,-124,7760,658,6732,-4,2025-01-27 13:58:48,0.0
15148,-436,8100,803,6648,543,2025-01-27 13:58:48,0.0
16096,-820,8220,596,7122,844,2025-01-27 13:58:48,0.0
16596,-1224,8648,245,7131,857,2025-01-27 13:58:48,0.0
16820,-1704,9676,337,7006,397,2025-01-27 13:58:48,0.0
18048,-2032,8044,222,5675,-411,2025-01-27 13:58:48,
