acceleration_x,acceleration_y,acceleration_z,gyroscope_x,gyroscope_y,gyroscope_z,timestamp,label
-13368,-988,-2256,-229,94,-209,2025-01-27 14:03:53,0.0
-13372,-1000,-2272,-201,126,-195,2025-01-27 14:03:53,0.0
-13392,-1060,-2176,-175,125,-195,2025-01-27 14:03:53,0.0
-13404,-1020,-2124,-167,101,-221,2025-01-27 14:03:53,0.0
-13304,-1052,-2124,-208,99,-191,2025-01-27 14:03:53,0.0
-13352,-980,-2124,-184,129,-184,2025-01-27 14:03:53,0.0
-13464,-972,-2228,-147,191,-199,2025-01-27 14:03:53,0.0
-13484,-924,-2236,-165,189,-169,2025-01-27 14:03:53,0.0
-13516,-916,-2192,-191,176,-190,2025-01-27 14:03:53,0.0
-13456,-900,-2292,-193,124,-208,2025-01-27 14:03:53,0.0
-13468,-952,-2236,-194,119,-175,2025-01-27 14:03:53,0.0
-13408,-1020,-2124,-185,105,-183,2025-01-27 14:03:53,0.0
-13356,-1048,-2152,-174,188,-174,2025-01-27 14:03:53,0.0
-13304,-1052,-2176,-118,223,-178,2025-01-27 14:03:53,0.0
-13512,-1108,-2164,-160,213,-168,2025-01-27 14:03:53,0.0
-13480,-1044,-2132,-134,196,-162,2025-01-27 14:03:53,0.0
-13504,-956,-2276,-150,125,-157,2025-01-27 14:03:53,0.0
-13480,-1000,-2076,-141,86,-168,2025-01-27 14:03:53,0.0
-13380,-1048,-2196,-114,93,-168,2025-01-27 14:03:53,0.0
-13408,-1004,-2016,-121,113,-140,2025-01-27 14:03:53,0.0
-13400,-1080,-2108,-110,202,-148,2025-01-27 14:03:53,0.0
-13432,-992,-1904,-103,296,-136,2025-01-27 14:03:53,0.0
-13432,-1124,-2216,-85,178,-170,2025-01-27 14:03:53,0.0
-13408,-1044,-2244,-44,108,-174,2025-01-27 14:03:53,0.0
-13404,-1004,-2096,-61,77,-178,2025-01-27 14:03:54,0.0
-13540,-944,-2096,-84,69,-179,2025-01-27 14:03:54,0.0
-13384,-924,-2028,-106,95,-192,2025-01-27 14:03:54,0.0
-13376,-844,-2056,-179,149,-185,2025-01-27 14:03:54,0.0
-13308,-860,-2264,-188,208,-193,2025-01-27 14:03:54,0.0
-13304,-888,-2144,-237,270,-190,2025-01-27 14:03:54,0.0
-13384,-1016,-2216,-268,274,-187,2025-01-27 14:03:54,0.0
-13404,-816,-2000,-295,180,-182,2025-01-27 14:03:54,0.0
-13392,-1000,-2112,-279,129,-206,2025-01-27 14:03:54,0.0
-13456,-980,-2152,-259,124,-185,2025-01-27 14:03:54,0.0
-13400,-968,-2032,-239,114,-183,2025-01-27 14:03:54,0.0
-13376,-1000,-2136,-213,128,-210,2025-01-27 14:03:54,0.0
-13276,-1060,-2068,-194,175,-196,2025-01-27 14:03:54,0.0
-13396,-1040,-2008,-218,156,-188,2025-01-27 14:03:54,0.0
-13476,-968,-2092,-172,129,-188,2025-01-27 14:03:54,0.0
-13532,-1068,-2204,-158,111,-156,2025-01-27 14:03:54,0.0
-13392,-1016,-2096,-133,124,-154,2025-01-27 14:03:54,0.0
-13400,-1000,-2140,-147,146,-148,2025-01-27 14:03:54,0.0
-13440,-1016,-2084,-134,123,-154,2025-01-27 14:03:54,0.0
-13388,-948,-2140,-132,176,-159,2025-01-27 14:03:54,0.0
-13416,-908,-2264,-111,180,-165,2025-01-27 14:03:54,0.0
-13468,-1036,-2280,-138,170,-183,2025-01-27 14:03:54,0.0
-13496,-972,-2208,-129,195,-183,2025-01-27 14:03:54,0.0
-13340,-1000,-2352,-165,171,-154,2025-01-27 14:03:54,0.0
-13476,-924,-2320,-162,145,-156,2025-01-27 14:03:54,0.0
-13388,-936,-2072,-144,219,-168,2025-01-27 14:03:54,0.0
-13508,-904,-2128,-155,345,-149,2025-01-27 14:03:54,0.0
-13356,-956,-2292,-164,466,-146,2025-01-27 14:03:54,0.0
-13304,-988,-2212,-171,440,-166,2025-01-27 14:03:54,0.0
-13340,-1028,-2288,-110,618,-135,2025-01-27 14:03:54,0.0
-13376,-972,-2376,-45,981,-113,2025-01-27 14:03:54,0.0
-13516,-876,-2440,50,1255,-88,2025-01-27 14:03:54,0.0
-13588,-856,-2400,101,983,-102,2025-01-27 14:03:54,0.0
-13712,-956,-2680,205,522,-90,2025-01-27 14:03:54,0.0
-13628,-1060,-2644,442,462,-119,2025-01-27 14:03:54,0.0
-13912,-1116,-2824,503,171,-250,2025-01-27 14:03:54,0.0
-14012,-1124,-2928,428,-872,-274,2025-01-27 14:03:54,0.0
-13852,-1104,-2780,236,-1927,-293,2025-01-27 14:03:54,0.0
-13484,-1068,-2912,191,-2248,-358,2025-01-27 14:03:54,0.0
-13100,-1036,-2920,204,-2005,-319,2025-01-27 14:03:54,0.0
-12984,-996,-2912,264,-1417,-274,2025-01-27 14:03:54,0.0
-13016,-984,-2760,303,-916,-190,2025-01-27 14:03:54,0.0
-13260,-1064,-2620,288,-864,-204,2025-01-27 14:03:54,0.0
-13428,-1056,-2716,342,-1074,-191,2025-01-27 14:03:54,0.0
-13168,-1036,-2596,454,-1383,-206,2025-01-27 14:03:54,0.0
-12860,-800,-2124,439,-1514,-166,2025-01-27 14:03:54,0.0
-12592,-708,-1880,346,-1055,-203,2025-01-27 14:03:54,0.0
-12588,-768,-1684,227,-530,-258,2025-01-27 14:03:54,0.0
-12904,-700,-1420,76,-94,-246,2025-01-27 14:03:54,0.0
-13092,-852,-1468,-38,282,-275,2025-01-27 14:03:54,0.0
-13464,-960,-1344,-131,415,-322,2025-01-27 14:03:54,0.0
-13716,-1100,-1424,-172,187,-359,2025-01-27 14:03:54,0.0
-13840,-1096,-1640,-220,-30,-396,2025-01-27 14:03:54,0.0
-13840,-1044,-2040,-368,-260,-418,2025-01-27 14:03:54,0.0
-13956,-992,-2172,-387,-668,-361,2025-01-27 14:03:54,0.0
-13852,-1068,-2320,-372,-1038,-264,2025-01-27 14:03:54,0.0
-13688,-984,-2104,-343,-1126,-293,2025-01-27 14:03:54,0.0
-13792,-1176,-2076,-259,-1314,-247,2025-01-27 14:03:54,0.0
-13852,-1116,-2040,-210,-1572,-271,2025-01-27 14:03:54,0.0
-13652,-1164,-1816,-112,-1801,-299,2025-01-27 14:03:54,0.0
-13328,-1176,-1740,-61,-1863,-299,2025-01-27 14:03:55,0.0
-13156,-1244,-1700,42,-1713,-222,2025-01-27 14:03:55,0.0
-12984,-1348,-1716,91,-1380,-100,2025-01-27 14:03:55,0.0
-12940,-1392,-1804,62,-970,-7,2025-01-27 14:03:55,0.0
-13148,-1336,-2184,17,-479,34,2025-01-27 14:03:55,0.0
-13484,-1164,-2108,-82,-262,127,2025-01-27 14:03:55,0.0
-13656,-956,-2216,-210,-516,177,2025-01-27 14:03:55,0.0
-13628,-664,-2328,-431,-1029,152,2025-01-27 14:03:55,0.0
-13224,-448,-2088,-652,-1566,127,2025-01-27 14:03:55,0.0
-12856,-300,-2180,-816,-1668,293,2025-01-27 14:03:55,0.0
-12164,-320,-2936,-986,-1243,425,2025-01-27 14:03:55,0.0
-12052,-320,-3564,-1055,-548,682,2025-01-27 14:03:55,0.0
-11832,-404,-3688,-1062,169,1082,2025-01-27 14:03:55,0.0
-11340,-440,-3740,-1046,598,1452,2025-01-27 14:03:55,0.0
-10840,-688,-3328,-1130,946,1585,2025-01-27 14:03:55,0.0
-10140,-1252,-2828,-1224,1855,1615,2025-01-27 14:03:55,
-9544,-1648,-2236,-820,3598,1560,2025-01-27 14:03:55,0.0
-9568,-1316,-2088,-85,6061,1867,2025-01-27 14:03:55,0.0
-10444,-964,-2312,461,7951,2329,2025-01-27 14:03:55,0.0
-11188,-1116,-2728,713,9438,2692,2025-01-27 14:03:55,0.0
-11840,-856,-2624,749,9650,2695,2025-01-27 14:03:55,0.0
-13188,-360,-3308,306,8595,2805,2025-01-27 14:03:55,0.0
-13144,-72,-3168,-125,7199,2897,2025-01-27 14:03:55,0.0
-12828,556,-2560,-470,5355,2815,2025-01-27 14:03:55,0.0
-12948,944,-2364,-864,3338,3193,2025-01-27 14:03:55,0.0
-11860,764,-1300,-869,1675,3145,2025-01-27 14:03:55,0.0
-11016,64,-296,-786,462,2799,2025-01-27 14:03:55,0.0
-11780,-112,-676,-607,448,2719,2025-01-27 14:03:55,0.0
-12456,-528,288,243,64,3137,2025-01-27 14:03:55,0.0
-13284,76,-640,1207,-51,2899,2025-01-27 14:03:55,0.0
-13740,964,-156,1492,-871,2674,2025-01-27 14:03:55,0.0
-13528,1748,-1372,1436,-1918,2488,2025-01-27 14:03:55,0.0
-14688,2140,-2016,1049,-3556,3555,2025-01-27 14:03:55,0.0
-13368,1504,-2064,855,-4401,3514,2025-01-27 14:03:55,0.0
-12556,1668,-1472,745,-4918,2511,2025-01-27 14:03:55,0.0
-17944,1728,-176,1620,1652,631,2025-01-27 14:03:55,0.0
-13348,1672,-2576,175,-4527,954,2025-01-27 14:03:55,0.0
-14056,1272,-816,1079,-4340,1308,2025-01-27 14:03:55,0.0
-12268,1440,-808,1601,-5542,1595,2025-01-27 14:03:55,0.0
-13532,1564,-948,1398,-8744,1724,2025-01-27 14:03:55,0.0
-12572,1460,-892,1020,-9828,1412,2025-01-27 14:03:55,0.0
-14056,2184,-1076,314,-10927,1285,2025-01-27 14:03:55,0.0
-15072,1944,-612,248,-10469,732,2025-01-27 14:03:55,0.0
-14844,1084,404,91,-10884,816,2025-01-27 14:03:55,0.0
-13944,-80,1248,245,-10431,594,2025-01-27 14:03:55,0.0
-14848,280,1848,438,-10527,388,2025-01-27 14:03:55,0.0
-14428,804,1496,324,-11309,197,2025-01-27 14:03:55,0.0
-13468,1756,1400,-277,-12075,-12,2025-01-27 14:03:55,0.0
-12888,2772,1600,-645,-12312,48,2025-01-27 14:03:55,0.0
-12264,2840,1268,-680,-10953,129,2025-01-27 14:03:55,0.0
-12436,1968,1080,-626,-10247,547,2025-01-27 14:03:55,0.0
-13580,432,3052,-564,-8289,658,2025-01-27 14:03:55,0.0
-13500,312,4432,-994,-8535,300,2025-01-27 14:03:55,0.0
-13412,1008,3528,-863,-9017,250,2025-01-27 14:03:55,0.0
-12828,1244,4324,-769,-9501,291,2025-01-27 14:03:55,0.0
-12356,2036,4164,-848,-9578,372,2025-01-27 14:03:55,0.0
-11440,1772,4568,-837,-8754,234,2025-01-27 14:03:55,0.0
-13328,2104,4596,-956,-7549,614,2025-01-27 14:03:55,0.0
-15168,1868,5132,-1150,-6840,535,2025-01-27 14:03:55,0.0
-13220,908,5080,-1036,-6359,555,2025-01-27 14:03:55,0.0
-13096,1688,4280,-1109,-5953,317,2025-01-27 14:03:55,0.0
-13648,1828,5060,-963,-5456,525,2025-01-27 14:03:56,0.0
-15452,2960,4692,-1081,-5388,622,2025-01-27 14:03:56,0.0
-13884,2356,4568,-1201,-5709,625,2025-01-27 14:03:56,0.0
-14292,2212,5388,-1413,-5921,654,2025-01-27 14:03:56,0.0
-14628,2544,7052,-1393,-6180,1023,2025-01-27 14:03:56,0.0
-12624,1980,6300,-1299,-5721,757,2025-01-27 14:03:56,0.0
-13836,1892,6672,-990,-5695,1054,2025-01-27 14:03:56,0.0
-13160,2316,6476,-899,-5901,1173,2025-01-27 14:03:56,0.0
-13648,1596,7180,-844,-5852,1229,2025-01-27 14:03:56,0.0
-12920,2160,7260,-800,-5952,1184,2025-01-27 14:03:56,0.0
-12660,1692,8188,-704,-5695,1137,2025-01-27 14:03:56,0.0
-9364,588,7848,-623,-5590,584,2025-01-27 14:03:56,0.0
-11548,1128,8260,-540,-5882,519,2025-01-27 14:03:56,0.0
-11952,1604,8684,-450,-6050,311,2025-01-27 14:03:56,0.0
-12348,2140,8708,-460,-7385,638,2025-01-27 14:03:56,0.0
-12608,1852,9920,-939,-6781,-258,2025-01-27 14:03:56,0.0
-11720,1756,9692,-1107,-6519,-520,2025-01-27 14:03:56,0.0
-10692,1572,9200,-1187,-6740,-366,2025-01-27 14:03:56,0.0
-10916,1448,9596,-1320,-6687,-324,2025-01-27 14:03:56,0.0
-11964,1512,9844,-1555,-6842,-382,2025-01-27 14:03:56,0.0
-12240,1420,10240,-1820,-7170,-802,2025-01-27 14:03:56,0.0
-12528,2112,10512,-2035,-6850,-1168,2025-01-27 14:03:56,0.0
-13024,2356,11136,-2060,-6076,-1030,2025-01-27 14:03:56,0.0
-13432,2284,12112,-2071,-5359,-893,2025-01-27 14:03:56,0.0
-15032,2736,13820,-1986,-4813,-835,2025-01-27 14:03:56,0.0
-15388,2940,14900,-1695,-5154,-165,2025-01-27 14:03:56,0.0
-14228,2648,15244,-1362,-5843,180,2025-01-27 14:03:56,0.0
-12668,2424,14876,-1097,-6033,-102,2025-01-27 14:03:56,0.0
-11728,2080,14676,-730,-5561,-464,2025-01-27 14:03:56,0.0
-10868,1996,14224,-753,-5212,-712,2025-01-27 14:03:56,0.0
-8892,1532,13868,-555,-5219,-789,2025-01-27 14:03:56,0.0
-8048,1608,12964,-293,-5076,-930,2025-01-27 14:03:56,0.0
-7972,1668,12740,-510,-4619,-1146,2025-01-27 14:03:56,0.0
-8036,1204,12464,-1081,-3681,-1177,2025-01-27 14:03:56,0.0
-8888,784,13356,-1303,-3050,-1213,2025-01-27 14:03:56,0.0
-9516,920,13952,-1233,-2740,-1088,2025-01-27 14:03:56,0.0
-10188,1036,14172,-1283,-2308,-1030,2025-01-27 14:03:56,0.0
-9764,928,13756,-1133,-1640,-1239,2025-01-27 14:03:56,0.0
-9792,748,13904,-736,-1072,-1484,2025-01-27 14:03:56,0.0
-10100,1056,13000,-625,-496,-1470,2025-01-27 14:03:56,0.0
-10312,1316,13500,-704,-196,-1339,2025-01-27 14:03:56,0.0
-9816,1460,13532,-737,-432,-979,2025-01-27 14:03:56,0.0
-9272,1384,13628,-575,-487,-891,2025-01-27 14:03:56,0.0
-9076,1396,13444,-423,-552,-823,2025-01-27 14:03:56,0.0
-9044,1300,13336,-332,-388,-814,2025-01-27 14:03:56,0.0
-9096,1272,13384,-336,-182,-845,2025-01-27 14:03:56,0.0
-9280,932,13668,-350,85,-833,2025-01-27 14:03:56,0.0
-9244,1080,13560,-521,386,-797,2025-01-27 14:03:56,0.0
-9116,940,13388,-509,603,-721,2025-01-27 14:03:56,0.0
-9412,1012,13108,-575,953,-626,2025-01-27 14:03:56,0.0
-9344,732,13100,-486,1223,-577,2025-01-27 14:03:56,0.0
-9076,600,13236,-266,1656,-659,2025-01-27 14:03:56,0.0
-10144,436,12644,-366,1907,-697,2025-01-27 14:03:56,0.0
-10200,696,12616,-656,1548,-751,2025-01-27 14:03:56,0.0
-10220,848,12408,-820,1478,-601,2025-01-27 14:03:56,
