acceleration_x,acceleration_y,acceleration_z,gyroscope_x,gyroscope_y,gyroscope_z,timestamp,label
-12480,-724,-5208,-104,75,-198,2025-01-27 14:10:14,0.0
-12344,-696,-5332,-103,105,-186,2025-01-27 14:10:14,0.0
-12388,-604,-5048,-93,158,-201,2025-01-27 14:10:14,0.0
-12416,-620,-5012,-58,203,-182,2025-01-27 14:10:14,0.0
-12332,-640,-5192,-105,130,-153,2025-01-27 14:10:14,0.0
-12320,-796,-5324,-74,112,-175,2025-01-27 14:10:15,0.0
-12432,-752,-5188,-82,210,-143,2025-01-27 14:10:15,0.0
-12372,-812,-5080,-58,310,-134,2025-01-27 14:10:15,0.0
-12392,-636,-5240,-27,239,-155,2025-01-27 14:10:15,0.0
-12464,-644,-5204,-77,137,-153,2025-01-27 14:10:15,0.0
-12396,-692,-5300,-83,66,-129,2025-01-27 14:10:15,0.0
-12432,-756,-5336,-137,146,-166,2025-01-27 14:10:15,0.0
-12388,-748,-5224,-129,187,-133,2025-01-27 14:10:15,0.0
-12492,-764,-5356,-145,192,-144,2025-01-27 14:10:15,0.0
-12440,-652,-5288,-113,45,-170,2025-01-27 14:10:15,0.0
-12460,-680,-5200,-152,-5,-148,2025-01-27 14:10:15,0.0
-12304,-776,-5128,-121,52,-157,2025-01-27 14:10:15,0.0
-12232,-688,-5128,-116,131,-180,2025-01-27 14:10:15,0.0
-12344,-748,-5172,-121,145,-222,2025-01-27 14:10:15,0.0
-12264,-828,-5328,-130,210,-215,2025-01-27 14:10:15,0.0
-12380,-812,-5140,-71,194,-185,2025-01-27 14:10:15,0.0
-12472,-704,-5072,-117,221,-183,2025-01-27 14:10:15,0.0
-12348,-784,-5156,-103,240,-161,2025-01-27 14:10:15,0.0
-12376,-804,-5344,-137,244,-167,2025-01-27 14:10:15,0.0
-12272,-720,-5316,-118,290,-169,2025-01-27 14:10:15,0.0
-12452,-656,-5156,-142,297,-177,2025-01-27 14:10:15,0.0
-12440,-652,-5012,-121,350,-159,2025-01-27 14:10:15,0.0
-12308,-860,-5320,-138,342,-169,2025-01-27 14:10:15,0.0
-12496,-616,-5268,-169,403,-181,2025-01-27 14:10:15,0.0
-12320,-588,-5364,-208,436,-175,2025-01-27 14:10:15,0.0
-12316,-568,-5160,-212,457,-146,2025-01-27 14:10:15,0.0
-12360,-680,-5208,-199,514,-164,2025-01-27 14:10:15,0.0
-12408,-704,-5228,-240,528,-153,2025-01-27 14:10:15,0.0
-12364,-676,-5280,-233,421,-204,2025-01-27 14:10:15,0.0
-12372,-720,-5356,-130,273,-209,2025-01-27 14:10:15,0.0
-12356,-752,-5316,-151,317,-196,2025-01-27 14:10:15,0.0
-12364,-608,-5168,-165,477,-215,2025-01-27 14:10:15,0.0
-12452,-644,-5108,-205,489,-215,2025-01-27 14:10:15,0.0
-12416,-816,-5288,-192,291,-226,2025-01-27 14:10:15,0.0
-12456,-912,-5332,-159,199,-212,2025-01-27 14:10:15,0.0
-12392,-896,-5352,-128,211,-153,2025-01-27 14:10:15,0.0
-12392,-824,-5308,-131,336,-158,2025-01-27 14:10:15,0.0
-12316,-672,-5400,-163,307,-158,2025-01-27 14:10:15,0.0
-12380,-608,-5192,-185,298,-158,2025-01-27 14:10:15,0.0
-12352,-596,-5304,-200,286,-148,2025-01-27 14:10:15,0.0
-12292,-668,-5220,-173,378,-155,2025-01-27 14:10:15,0.0
-12364,-648,-5332,-232,398,-150,2025-01-27 14:10:15,0.0
-12284,-780,-5420,-186,334,-162,2025-01-27 14:10:15,0.0
-12396,-652,-5512,-247,280,-163,2025-01-27 14:10:15,0.0
-12384,-828,-5496,-312,254,-117,2025-01-27 14:10:15,0.0
-12428,-712,-5380,-246,172,-75,2025-01-27 14:10:15,0.0
-12300,-600,-5364,-323,154,-71,2025-01-27 14:10:15,0.0
-12312,-564,-5412,-359,193,-100,2025-01-27 14:10:15,0.0
-12112,-444,-5364,-364,281,-131,2025-01-27 14:10:15,0.0
-12252,-540,-5224,-379,443,-179,2025-01-27 14:10:15,0.0
-12200,-516,-5220,-366,508,-206,2025-01-27 14:10:15,0.0
-12320,-636,-5284,-372,565,-253,2025-01-27 14:10:15,0.0
-12316,-684,-5212,-317,541,-272,2025-01-27 14:10:15,0.0
-12308,-732,-5136,-228,490,-256,2025-01-27 14:10:15,0.0
-12228,-836,-5544,-188,479,-273,2025-01-27 14:10:15,0.0
-12276,-752,-5384,-145,497,-260,2025-01-27 14:10:15,0.0
-12336,-824,-5400,-96,557,-273,2025-01-27 14:10:15,0.0
-12396,-772,-5540,-105,605,-186,2025-01-27 14:10:15,0.0
-12492,-748,-5524,-131,505,-99,2025-01-27 14:10:15,0.0
-12504,-724,-5440,-87,368,5,2025-01-27 14:10:15,0.0
-12272,-756,-5392,-63,216,28,2025-01-27 14:10:16,0.0
-12272,-676,-5528,-53,200,36,2025-01-27 14:10:16,0.0
-12348,-452,-5432,-45,174,52,2025-01-27 14:10:16,0.0
-12156,-468,-5408,-122,231,68,2025-01-27 14:10:16,0.0
-12408,-252,-5520,-158,150,152,2025-01-27 14:10:16,0.0
-12392,-28,-5860,-316,84,142,2025-01-27 14:10:16,0.0
-12360,36,-5832,-475,-98,186,2025-01-27 14:10:16,0.0
-12252,104,-5960,-573,-281,213,2025-01-27 14:10:16,0.0
-12168,236,-5876,-633,-147,293,2025-01-27 14:10:16,0.0
-12300,392,-5908,-732,-264,234,2025-01-27 14:10:16,0.0
-12208,448,-5708,-810,-330,160,2025-01-27 14:10:16,0.0
-12224,484,-5428,-833,-425,112,2025-01-27 14:10:16,0.0
-12292,372,-5420,-832,-418,-1,2025-01-27 14:10:16,0.0
-12040,360,-5432,-891,-378,-163,2025-01-27 14:10:16,0.0
-12104,292,-5312,-821,-104,-262,2025-01-27 14:10:16,0.0
-11964,344,-4976,-789,287,-261,2025-01-27 14:10:16,0.0
-11976,104,-4884,-715,504,-329,2025-01-27 14:10:16,0.0
-12080,60,-4640,-689,605,-444,2025-01-27 14:10:16,0.0
-12096,36,-4684,-631,705,-503,2025-01-27 14:10:16,0.0
-12336,60,-4796,-635,632,-533,2025-01-27 14:10:16,0.0
-12340,164,-5084,-689,593,-524,2025-01-27 14:10:16,0.0
-12424,-40,-4896,-616,463,-606,2025-01-27 14:10:16,0.0
-12588,-96,-5048,-541,293,-733,2025-01-27 14:10:16,0.0
-12560,-8,-5072,-472,44,-807,2025-01-27 14:10:16,0.0
-12744,-484,-4940,-372,-43,-883,2025-01-27 14:10:16,0.0
-12460,-608,-5064,-93,-227,-1139,2025-01-27 14:10:16,0.0
-12300,-532,-5752,-140,-220,-1332,2025-01-27 14:10:16,0.0
-12624,-716,-5596,-183,-235,-1535,2025-01-27 14:10:16,0.0
-12908,-920,-5488,-184,-387,-1718,2025-01-27 14:10:16,0.0
-13032,-1160,-5288,74,-709,-1917,2025-01-27 14:10:16,0.0
-12764,-1148,-5464,304,-893,-2090,2025-01-27 14:10:16,0.0
-12520,-1016,-5276,688,-914,-2323,2025-01-27 14:10:16,0.0
-12112,-1040,-5616,1105,-825,-2595,2025-01-27 14:10:16,0.0
-12084,-1204,-5624,1339,-325,-2808,2025-01-27 14:10:16,0.0
-11928,-1632,-5764,1633,232,-2873,2025-01-27 14:10:16,
-11900,-2068,-5604,2070,989,-2889,2025-01-27 14:10:16,0.0
-11880,-2720,-5524,2550,1579,-2817,2025-01-27 14:10:16,0.0
-12056,-3336,-5060,2989,1592,-2332,2025-01-27 14:10:16,0.0
-12244,-3244,-5092,3150,1303,-1295,2025-01-27 14:10:16,0.0
-12120,-2752,-4388,2938,1421,-742,2025-01-27 14:10:16,0.0
-12468,-1760,-3780,2631,1738,-816,2025-01-27 14:10:16,0.0
-12984,-1076,-3900,2136,1629,-1014,2025-01-27 14:10:16,0.0
-13336,-812,-4136,1627,1214,-1406,2025-01-27 14:10:16,0.0
-13460,-960,-4500,1152,802,-1741,2025-01-27 14:10:16,0.0
-13384,-1212,-4640,448,252,-2095,2025-01-27 14:10:16,0.0
-13068,-1596,-4492,-97,-385,-2491,2025-01-27 14:10:16,0.0
-13128,-2108,-4108,-338,-915,-2396,2025-01-27 14:10:16,0.0
-12764,-2576,-3772,-432,-1413,-1866,2025-01-27 14:10:16,0.0
-12020,-2620,-3992,-476,-1426,-1104,2025-01-27 14:10:16,0.0
-11768,-2596,-4820,-735,-656,-338,2025-01-27 14:10:16,0.0
-11476,-2604,-5340,-1277,254,372,2025-01-27 14:10:16,0.0
-11824,-2520,-5148,-1755,927,636,2025-01-27 14:10:16,0.0
-12564,-2632,-4212,-2004,1066,576,2025-01-27 14:10:16,0.0
-13248,-2712,-3224,-2083,-98,661,2025-01-27 14:10:16,0.0
-12656,-2728,-2688,-1815,-2116,596,2025-01-27 14:10:16,0.0
-11592,-2152,-3100,-1468,-3720,502,2025-01-27 14:10:16,0.0
-10796,-1568,-3768,-1537,-3817,576,2025-01-27 14:10:16,0.0
-10776,-1956,-3204,-1934,-2055,1145,2025-01-27 14:10:16,0.0
-11132,-2964,-2892,-2071,-1206,1925,2025-01-27 14:10:16,0.0
-11408,-3956,-2948,-1957,-1164,2870,2025-01-27 14:10:16,0.0
-10652,-4276,-2380,-1608,-1677,3352,2025-01-27 14:10:16,0.0
-9688,-3732,-1728,-1295,-2503,3210,2025-01-27 14:10:17,0.0
-8924,-2380,-1636,-1020,-3677,2865,2025-01-27 14:10:17,0.0
-8076,-784,-1640,-853,-3503,2549,2025-01-27 14:10:17,0.0
-7792,96,-2300,-1414,-1799,2114,2025-01-27 14:10:17,0.0
-8176,1112,-2628,-2247,-600,1797,2025-01-27 14:10:17,0.0
-9248,1196,-2220,-3002,358,1625,2025-01-27 14:10:17,0.0
-10740,368,-1760,-3836,1283,1611,2025-01-27 14:10:17,0.0
-12120,-1004,-2408,-4425,2383,1452,2025-01-27 14:10:17,0.0
-12924,-1880,-3008,-4439,2158,1209,2025-01-27 14:10:17,0.0
-13540,-2560,-3208,-4373,980,1358,2025-01-27 14:10:17,0.0
-14072,-3368,-2044,-4156,64,1702,2025-01-27 14:10:17,0.0
-13428,-4288,-1208,-3175,-541,1856,2025-01-27 14:10:17,0.0
-11884,-4004,-1868,-1995,-1819,1697,2025-01-27 14:10:17,0.0
-11476,-2976,-1260,-898,-1936,1484,2025-01-27 14:10:17,0.0
-12440,-2316,-684,-600,-33,1944,2025-01-27 14:10:17,0.0
-13396,-2916,-1852,-705,1658,2690,2025-01-27 14:10:17,0.0
-14580,-3968,-5568,-421,2671,3031,2025-01-27 14:10:17,0.0
-15916,-3860,-9436,-444,2231,3244,2025-01-27 14:10:17,0.0
-17496,-3596,-9392,1281,290,2881,2025-01-27 14:10:17,0.0
-21140,744,-10440,3803,-520,2973,2025-01-27 14:10:17,0.0
-22188,4856,-10720,3344,-3249,3750,2025-01-27 14:10:17,0.0
-19608,7056,-9504,1282,-6544,4178,2025-01-27 14:10:17,0.0
-14084,5372,-9324,562,-7682,2219,2025-01-27 14:10:17,0.0
-11352,2888,-8596,-172,-4100,-479,2025-01-27 14:10:17,0.0
-11540,-56,-6700,-1340,806,-1911,2025-01-27 14:10:17,0.0
-13828,-1596,-4984,-1489,4314,-1308,2025-01-27 14:10:17,0.0
-16748,-1428,-3940,-943,6038,88,2025-01-27 14:10:17,0.0
-18236,96,-3728,-444,4872,882,2025-01-27 14:10:17,0.0
-18008,3612,-4676,-151,592,1184,2025-01-27 14:10:17,0.0
-16736,5620,-5820,-881,-3043,1403,2025-01-27 14:10:17,0.0
-13284,5120,-6684,-1811,-3988,1493,2025-01-27 14:10:17,0.0
-10644,4032,-6580,-3086,-3350,1019,2025-01-27 14:10:17,0.0
-9196,2520,-4724,-3810,-1601,658,2025-01-27 14:10:17,0.0
-8904,960,-3216,-3962,159,580,2025-01-27 14:10:17,0.0
-9040,-640,-2412,-3472,1796,676,2025-01-27 14:10:17,0.0
-9548,-928,-2004,-2467,2544,513,2025-01-27 14:10:17,0.0
-10416,-64,-2188,-1417,2317,262,2025-01-27 14:10:17,0.0
-11248,1348,-2636,-902,1882,180,2025-01-27 14:10:17,0.0
-11316,2176,-2612,-453,1295,62,2025-01-27 14:10:17,0.0
-11200,2728,-2552,-140,389,-428,2025-01-27 14:10:17,0.0
-10256,2272,-2700,-253,-528,-1315,2025-01-27 14:10:17,0.0
-9728,1396,-2088,-138,-1083,-2299,2025-01-27 14:10:17,0.0
-9472,756,-1672,356,-1275,-2993,2025-01-27 14:10:17,0.0
-9272,152,-1276,702,-1033,-3660,2025-01-27 14:10:17,0.0
-9472,-112,-328,1213,-950,-4351,2025-01-27 14:10:17,0.0
-9996,-976,1048,1948,-1608,-5106,2025-01-27 14:10:17,0.0
-10188,-740,1972,2931,-2977,-5812,2025-01-27 14:10:17,0.0
-10096,204,948,3895,-3532,-6082,2025-01-27 14:10:17,0.0
-9444,2320,-996,4154,-3706,-5775,2025-01-27 14:10:17,0.0
-8840,4156,-3404,4263,-3531,-5060,2025-01-27 14:10:17,0.0
-8324,3692,-6924,2157,-452,-4262,2025-01-27 14:10:17,0.0
-9752,1480,-6516,-103,4928,-3778,2025-01-27 14:10:17,0.0
-11952,-988,-2804,-380,8131,-2882,2025-01-27 14:10:17,0.0
-13476,-2588,-840,1294,6645,-2283,2025-01-27 14:10:17,0.0
-15424,-2568,-604,2493,3525,-2501,2025-01-27 14:10:17,0.0
-16592,-764,-748,3159,34,-2292,2025-01-27 14:10:17,0.0
-15576,1388,-1276,3550,-3454,-1607,2025-01-27 14:10:17,0.0
-13080,2560,-2236,3730,-5123,-1298,2025-01-27 14:10:18,0.0
-12240,2568,-3792,2877,-4234,-465,2025-01-27 14:10:18,0.0
-11152,1524,-5292,2182,-512,-24,2025-01-27 14:10:18,0.0
-12060,912,-7416,1367,2770,120,2025-01-27 14:10:18,0.0
-12892,1596,-12452,19,5392,786,2025-01-27 14:10:18,0.0
-15688,-92,-15464,-1873,7739,1044,2025-01-27 14:10:18,0.0
-17808,-3320,-11796,-3235,8303,630,2025-01-27 14:10:18,0.0
-18300,-5308,-8256,-1535,6042,-227,2025-01-27 14:10:18,0.0
-18316,-5488,-7424,177,1511,-781,2025-01-27 14:10:18,0.0
-17556,-3972,-6872,939,-2643,-728,2025-01-27 14:10:18,0.0
-16740,-2872,-8196,1469,-2074,-426,2025-01-27 14:10:18,0.0
-17540,-2524,-9536,1222,2037,-39,2025-01-27 14:10:18,0.0
-17852,-1824,-6840,949,3165,-215,2025-01-27 14:10:18,0.0
-18016,-2172,-4808,1084,1703,-602,2025-01-27 14:10:18,0.0
-16508,-2596,-4280,1371,-1438,-715,2025-01-27 14:10:18,0.0
-13984,-3296,-5460,1730,-2534,-1356,2025-01-27 14:10:18,0.0
-11816,-3660,-5960,1957,-2176,-2121,2025-01-27 14:10:18,
-10568,-3336,-5476,2227,-997,-2258,2025-01-27 14:10:18,0.0
-9496,-2312,-4700,2344,1039,-1946,2025-01-27 14:10:18,0.0
-9720,-1356,-4044,2221,2900,-1230,2025-01-27 14:10:18,0.0
-9872,-1396,-4096,1764,4038,-357,2025-01-27 14:10:18,0.0
-9840,-2132,-4664,1210,4010,36,2025-01-27 14:10:18,0.0
-10188,-2584,-4712,910,3283,-2,2025-01-27 14:10:18,0.0
-11492,-2672,-4704,467,2235,213,2025-01-27 14:10:18,0.0
-11988,-2252,-4320,175,1450,925,2025-01-27 14:10:18,0.0
-12352,-1612,-3912,-277,691,1492,2025-01-27 14:10:18,0.0
-12760,-1612,-3008,-669,-266,2059,2025-01-27 14:10:18,0.0
-12220,-2040,-3368,-1138,-1744,2786,2025-01-27 14:10:18,0.0
-11300,-2048,-3700,-1279,-3280,3175,2025-01-27 14:10:18,0.0
-10872,-1404,-1312,-992,-4132,3134,2025-01-27 14:10:18,0.0
-9588,-860,-1140,-692,-4388,2948,2025-01-27 14:10:18,0.0
-9940,-652,-1496,-954,-3279,3089,2025-01-27 14:10:18,0.0
-10604,-1024,-2936,-1986,-1825,4554,2025-01-27 14:10:18,0.0
-9960,-1572,-3344,-2452,-1251,5905,2025-01-27 14:10:18,0.0
-8460,-1976,-2872,-2533,-1241,6098,2025-01-27 14:10:18,0.0
-6536,-2432,-1416,-2395,-657,4840,2025-01-27 14:10:18,0.0
-5384,-1924,-1224,-1914,-354,3054,2025-01-27 14:10:18,0.0
-6124,-1136,-784,-1325,619,1502,2025-01-27 14:10:18,0.0
-8184,-416,-1680,-1425,3048,1058,2025-01-27 14:10:18,0.0
-10884,136,-3000,-1862,5786,1663,2025-01-27 14:10:18,0.0
-13040,108,-4872,-2428,6660,2401,2025-01-27 14:10:18,0.0
-14644,-1880,-5528,-2737,5003,2379,2025-01-27 14:10:18,0.0
-15436,-4320,-3560,-1739,937,1573,2025-01-27 14:10:18,0.0
-15284,-4312,-1108,292,-4055,969,2025-01-27 14:10:18,0.0
-15028,-3084,-964,1040,-5752,1216,2025-01-27 14:10:18,0.0
-14096,-2756,-3136,1508,-5188,1499,2025-01-27 14:10:18,0.0
-13772,-2208,-7948,1849,-3991,566,2025-01-27 14:10:18,0.0
-15608,-992,-9128,2636,-2441,-412,2025-01-27 14:10:18,0.0
-16916,800,-9724,4055,-2502,-660,2025-01-27 14:10:18,0.0
-18648,2992,-10200,3789,-2591,-440,2025-01-27 14:10:18,0.0
-19100,3020,-9448,2593,-2602,922,2025-01-27 14:10:18,0.0
-16916,2028,-7188,989,-2165,2225,2025-01-27 14:10:18,0.0
-15468,1724,-6540,559,-684,2104,2025-01-27 14:10:18,0.0
-15216,1628,-7124,374,1307,956,2025-01-27 14:10:18,0.0
-16224,1284,-6164,400,2720,-506,2025-01-27 14:10:18,0.0
-18512,1780,-5084,797,2280,-1101,2025-01-27 14:10:18,0.0
-20060,2376,-4908,625,-50,147,2025-01-27 14:10:18,0.0
-18292,2980,-4996,678,-1953,1557,2025-01-27 14:10:18,0.0
-16036,3156,-5884,104,-2365,2149,2025-01-27 14:10:18,0.0
-13344,2732,-5428,-554,-1616,2298,2025-01-27 14:10:18,0.0
-10604,1876,-5312,-1046,-995,1790,2025-01-27 14:10:18,0.0
-9220,1236,-4504,-1072,-132,1194,2025-01-27 14:10:18,0.0
-8312,764,-3932,-771,985,584,2025-01-27 14:10:18,0.0
-8412,680,-3272,-314,2073,54,2025-01-27 14:10:19,0.0
-8828,788,-3156,224,2716,-255,2025-01-27 14:10:19,0.0
-9840,1468,-3032,862,2747,-514,2025-01-27 14:10:19,0.0
-10044,1980,-3072,1154,2119,-730,2025-01-27 14:10:19,0.0
-9584,1980,-3076,1019,1291,-1131,2025-01-27 14:10:19,0.0
-8948,1324,-2696,938,868,-1727,2025-01-27 14:10:19,0.0
-8656,772,-2240,1026,556,-2239,2025-01-27 14:10:19,0.0
-9072,392,-1904,1193,415,-2641,2025-01-27 14:10:19,0.0
-9068,36,-2296,1385,270,-2743,2025-01-27 14:10:19,0.0
-9124,-112,-1964,1479,-1150,-2959,2025-01-27 14:10:19,0.0
-8408,580,-2192,1708,-3071,-3956,2025-01-27 14:10:19,0.0
-8392,2680,-3080,1797,-4317,-5766,2025-01-27 14:10:19,0.0
-8508,4188,-4196,1314,-3436,-6870,2025-01-27 14:10:19,0.0
-8164,4748,-5764,203,-2440,-7113,2025-01-27 14:10:19,0.0
-8164,3772,-6548,-1569,-449,-6329,2025-01-27 14:10:19,0.0
-7908,1904,-5228,-2992,2683,-5744,2025-01-27 14:10:19,0.0
-8952,-120,-3408,-3905,5337,-5606,2025-01-27 14:10:19,0.0
-11336,-2304,-1588,-3955,5593,-5436,2025-01-27 14:10:19,0.0
-13932,-3408,-1452,-3171,3007,-4697,2025-01-27 14:10:19,0.0
-14924,-3324,-2296,-2585,423,-2979,2025-01-27 14:10:19,0.0
-13596,-1832,-1484,-2084,-1091,-2396,2025-01-27 14:10:19,0.0
-13816,-28,-780,-2095,-1596,-2683,2025-01-27 14:10:19,0.0
-16272,1976,-1352,-2308,-1212,-2089,2025-01-27 14:10:19,0.0
-15960,1796,-5300,-2534,-191,-1309,2025-01-27 14:10:19,0.0
-15820,-304,-9080,-2930,481,-843,2025-01-27 14:10:19,0.0
-16664,-2956,-11520,-3567,1857,-615,2025-01-27 14:10:19,0.0
-18824,-4604,-10392,-3781,3725,-42,2025-01-27 14:10:19,0.0
-20084,-4884,-9516,-3169,4509,1138,2025-01-27 14:10:19,0.0
-20088,-4212,-8432,-2749,3083,2404,2025-01-27 14:10:19,0.0
-18068,-3452,-7944,-2323,654,2442,2025-01-27 14:10:19,0.0
-16608,-3024,-6204,-1462,11,1228,2025-01-27 14:10:19,0.0
-18320,-1688,-4864,2018,-273,-1449,2025-01-27 14:10:19,0.0
-17824,-3348,-6036,1556,-1703,-2070,2025-01-27 14:10:19,0.0
-17524,-4564,-5396,1452,-2642,-1702,2025-01-27 14:10:19,0.0
-15044,-4892,-4880,1704,-2908,-889,2025-01-27 14:10:19,0.0
-12256,-3676,-4804,2395,-3153,-1060,2025-01-27 14:10:19,0.0
-10624,-1328,-4692,2779,-3083,-998,2025-01-27 14:10:19,0.0
-8588,0,-5464,2547,-1453,-894,2025-01-27 14:10:19,0.0
-7672,192,-5536,1412,1715,-1254,2025-01-27 14:10:19,0.0
-8456,-336,-4808,442,3791,-1658,2025-01-27 14:10:19,0.0
-10296,-1456,-4212,-82,4194,-1545,2025-01-27 14:10:19,0.0
-11536,-2644,-4528,-504,3144,-1227,2025-01-27 14:10:19,0.0
-12000,-3448,-4852,-812,1701,-695,2025-01-27 14:10:19,0.0
-11376,-3476,-4328,-750,596,27,2025-01-27 14:10:19,0.0
-10248,-2412,-4020,-801,-437,552,2025-01-27 14:10:19,0.0
-10340,-1648,-3232,-1224,-684,874,2025-01-27 14:10:19,0.0
-10088,-1104,-3276,-1696,-576,1222,2025-01-27 14:10:19,0.0
-9984,-512,-2360,-1925,-856,1477,2025-01-27 14:10:19,0.0
-10044,-244,-2004,-2038,-1297,1815,2025-01-27 14:10:19,0.0
-10144,-684,-2696,-2225,-1208,2424,2025-01-27 14:10:19,0.0
-10292,-1752,-3440,-2478,-713,3257,2025-01-27 14:10:19,0.0
-10660,-2756,-3508,-2664,-115,4219,2025-01-27 14:10:19,0.0
-10152,-3136,-2568,-2430,7,4715,2025-01-27 14:10:19,0.0
-8864,-2768,-1832,-1776,-447,4178,2025-01-27 14:10:19,
-7708,-2204,-2032,-1116,-1126,3035,2025-01-27 14:10:19,0.0
-7384,-2028,-3176,-543,-823,1835,2025-01-27 14:10:19,0.0
-8380,-2328,-4184,-417,1664,1605,2025-01-27 14:10:19,0.0
-9716,-1972,-3240,-358,4286,1841,2025-01-27 14:10:19,0.0
-11140,-2216,-2632,-773,5042,1612,2025-01-27 14:10:19,0.0
-12264,-2320,-1540,-856,3661,1087,2025-01-27 14:10:20,0.0
-13720,-1856,-744,-19,849,788,2025-01-27 14:10:20,0.0
-13772,-1820,-1752,60,-2188,1260,2025-01-27 14:10:20,0.0
-12392,-2096,-3552,174,-3474,1299,2025-01-27 14:10:20,0.0
-11320,-684,-7244,996,-3293,182,2025-01-27 14:10:20,0.0
-12124,-196,-8484,920,-1551,-1500,2025-01-27 14:10:20,0.0
-15244,676,-8176,2171,579,-2648,2025-01-27 14:10:20,0.0
-18308,-36,-9200,2370,-87,-1805,2025-01-27 14:10:20,0.0
-19080,-316,-9028,2107,-1808,-35,2025-01-27 14:10:20,0.0
-17792,-248,-6940,1121,-1820,1691,2025-01-27 14:10:20,0.0
-16500,232,-3756,-12,685,2801,2025-01-27 14:10:20,0.0
-14904,572,-5544,-186,3177,2210,2025-01-27 14:10:20,0.0
-15864,-400,-9768,-698,5811,287,2025-01-27 14:10:20,0.0
-20476,-504,-8384,-1120,6471,-1221,2025-01-27 14:10:20,0.0
-24500,1884,-5732,-131,1236,-67,2025-01-27 14:10:20,0.0
-23844,3692,-6052,-303,-3680,1151,2025-01-27 14:10:20,0.0
-20984,4288,-5828,-1416,-6265,1712,2025-01-27 14:10:20,0.0
-16972,3636,-5688,-2064,-6490,1880,2025-01-27 14:10:20,0.0
-13860,3052,-6300,-2821,-4731,1930,2025-01-27 14:10:20,0.0
-11676,1956,-5636,-3437,-2330,1605,2025-01-27 14:10:20,0.0
-10272,104,-4536,-3178,-188,635,2025-01-27 14:10:20,0.0
-10620,-580,-3824,-2577,1135,237,2025-01-27 14:10:20,0.0
-11400,-440,-3524,-1835,1882,504,2025-01-27 14:10:20,0.0
-11544,-52,-3128,-1021,2026,869,2025-01-27 14:10:20,0.0
-10920,716,-2728,-247,1740,909,2025-01-27 14:10:20,0.0
-9648,1172,-2588,83,1444,443,2025-01-27 14:10:20,0.0
-8120,936,-2548,146,1473,-286,2025-01-27 14:10:20,0.0
-7712,424,-2116,309,1880,-789,2025-01-27 14:10:20,0.0
-7640,508,-2520,688,2168,-1203,2025-01-27 14:10:20,0.0
-9224,632,-2260,898,2199,-1999,2025-01-27 14:10:20,0.0
-9440,776,-2700,966,1123,-2716,2025-01-27 14:10:20,0.0
-9396,504,-2740,1120,-43,-2717,2025-01-27 14:10:20,0.0
-8604,-68,-1844,962,-645,-2523,2025-01-27 14:10:20,0.0
-7452,-592,-1092,1065,-520,-2837,2025-01-27 14:10:20,0.0
-7196,-368,-1756,1585,-40,-3819,2025-01-27 14:10:20,0.0
-8312,812,-3472,1915,-603,-4701,2025-01-27 14:10:20,0.0
-9976,1968,-3688,1940,-2569,-4736,2025-01-27 14:10:20,0.0
-10372,1132,-2868,1549,-3249,-4214,2025-01-27 14:10:20,0.0
-10852,392,-2464,453,-1082,-3695,2025-01-27 14:10:20,0.0
-11692,180,-2108,26,-86,-2946,2025-01-27 14:10:20,0.0
-12460,-412,-2660,426,-625,-2524,2025-01-27 14:10:20,0.0
-13024,-400,-1168,459,-646,-2282,2025-01-27 14:10:20,0.0
-13396,1188,212,546,-608,-2679,2025-01-27 14:10:20,0.0
-13912,3072,172,50,-1519,-2868,2025-01-27 14:10:20,0.0
-13000,3448,-1656,-636,-3109,-2611,2025-01-27 14:10:20,0.0
-12288,3360,-5368,-1467,-3167,-2305,2025-01-27 14:10:20,0.0
-13140,2292,-10060,-2237,659,-1122,2025-01-27 14:10:20,0.0
-13336,224,-12776,-3278,3570,-23,2025-01-27 14:10:20,0.0
-14144,-4556,-12808,-4399,6560,233,2025-01-27 14:10:20,0.0
-16272,-8308,-10476,-3397,8313,-471,2025-01-27 14:10:20,0.0
-19924,-9236,-8596,-1402,7575,-1010,2025-01-27 14:10:20,0.0
-22780,-7144,-7120,-367,2829,-434,2025-01-27 14:10:20,0.0
-21652,-3204,-6180,114,-3185,634,2025-01-27 14:10:20,0.0
-19324,-108,-7476,785,-5312,966,2025-01-27 14:10:20,0.0
-19040,2332,-6704,757,-3541,1504,2025-01-27 14:10:21,0.0
-17240,1244,-5676,-777,-1225,1399,2025-01-27 14:10:21,0.0
-15936,-2088,-3932,-976,-1896,-108,2025-01-27 14:10:21,0.0
-15744,-3916,-3560,-377,-3022,-1253,2025-01-27 14:10:21,0.0
-14420,-4012,-3552,184,-2207,-1691,2025-01-27 14:10:21,0.0
-13344,-3872,-4084,731,-759,-1584,2025-01-27 14:10:21,0.0
-12444,-2892,-4680,1482,971,-1312,2025-01-27 14:10:21,0.0
-11728,-1564,-5232,1784,2609,-904,2025-01-27 14:10:21,0.0
-10668,-76,-5184,1274,3279,-708,2025-01-27 14:10:21,0.0
-9952,416,-4516,387,3085,-785,2025-01-27 14:10:21,0.0
-9612,-344,-4212,-395,3002,-1077,2025-01-27 14:10:21,0.0
-9720,-1552,-4072,-965,3081,-1348,2025-01-27 14:10:21,0.0
-10564,-3112,-4116,-1255,3093,-1118,2025-01-27 14:10:21,0.0
-11124,-4328,-3952,-1187,2964,-383,2025-01-27 14:10:21,0.0
-11024,-4196,-4104,-901,1871,675,2025-01-27 14:10:21,0.0
-10872,-3080,-4652,-1010,1047,1319,2025-01-27 14:10:21,0.0
-10480,-1784,-4716,-1278,195,1694,2025-01-27 14:10:21,0.0
-11276,-428,-3616,-1716,-370,2119,2025-01-27 14:10:21,0.0
-11560,188,-2652,-1972,-853,2314,2025-01-27 14:10:21,0.0
-11976,400,-2456,-2358,-1541,2547,2025-01-27 14:10:21,0.0
-11936,148,-2256,-2597,-2951,2975,2025-01-27 14:10:21,0.0
-10516,-500,-2204,-2488,-4680,3840,2025-01-27 14:10:21,0.0
-8472,-1152,-2700,-2878,-5059,4325,2025-01-27 14:10:21,0.0
-6488,-2028,-2828,-3205,-4373,4172,2025-01-27 14:10:21,0.0
-5140,-2848,-2912,-2809,-2888,3234,2025-01-27 14:10:21,0.0
-5564,-2972,-824,-1639,-914,1712,2025-01-27 14:10:21,0.0
-7700,-2852,808,-466,1608,726,2025-01-27 14:10:21,0.0
-11144,-2148,1300,595,3240,1059,2025-01-27 14:10:21,0.0
-13064,-1820,-1328,1204,3721,2207,2025-01-27 14:10:21,0.0
-13204,-1528,-3936,1295,3365,3221,2025-01-27 14:10:21,0.0
-12208,-1572,-3712,908,2490,3310,2025-01-27 14:10:21,0.0
-11628,-1620,-1588,782,1800,2611,2025-01-27 14:10:21,0.0
-10660,-1600,-792,1081,1188,1519,2025-01-27 14:10:21,0.0
-10552,-1928,-2164,1653,977,-145,2025-01-27 14:10:21,0.0
-11716,-2236,-5328,2416,2374,-1483,2025-01-27 14:10:21,0.0
-14076,-2016,-7316,3216,4852,-2424,2025-01-27 14:10:21,0.0
-16876,-852,-9880,3963,5455,-2564,2025-01-27 14:10:21,0.0
-19988,396,-12340,4298,4651,-1633,2025-01-27 14:10:21,0.0
-23000,1596,-11348,3789,911,214,2025-01-27 14:10:21,0.0
-22504,2176,-10456,2400,-3240,1466,2025-01-27 14:10:21,0.0
-19248,3172,-10864,890,-5243,2472,2025-01-27 14:10:21,
-15944,2780,-10684,364,-3660,2067,2025-01-27 14:10:21,0.0
-14732,636,-7720,-578,843,239,2025-01-27 14:10:21,0.0
-16140,-1012,-4452,-1467,2679,-107,2025-01-27 14:10:21,0.0
-17664,-1176,-4764,-1287,907,281,2025-01-27 14:10:21,0.0
-18844,1092,-4776,-949,-1510,1325,2025-01-27 14:10:21,0.0
-17956,3044,-5368,-457,-3662,2011,2025-01-27 14:10:21,0.0
-15740,3572,-6396,-194,-5405,2383,2025-01-27 14:10:21,0.0
-12640,2560,-6132,-496,-5529,2317,2025-01-27 14:10:21,0.0
-9708,1020,-5308,-853,-4068,1783,2025-01-27 14:10:21,0.0
-8368,-276,-4228,-890,-1398,1382,2025-01-27 14:10:21,0.0
-7944,-860,-3660,-97,1605,1074,2025-01-27 14:10:21,0.0
-8204,-692,-3732,528,2837,444,2025-01-27 14:10:21,0.0
-9296,-660,-3136,598,2674,-524,2025-01-27 14:10:21,0.0
-10332,28,-2268,944,1012,-1565,2025-01-27 14:10:21,0.0
-10760,864,-2604,1370,-1677,-2695,2025-01-27 14:10:21,0.0
-10324,1356,-3964,1527,-3672,-3358,2025-01-27 14:10:21,0.0
-9232,1396,-3800,1459,-4378,-3770,2025-01-27 14:10:21,0.0
-8496,1588,-2336,1573,-4253,-4143,2025-01-27 14:10:21,0.0
-7664,1660,-2928,1422,-3993,-4271,2025-01-27 14:10:21,0.0
-8240,1544,-1996,772,-2841,-4445,2025-01-27 14:10:21,0.0
-8476,1484,-1844,135,-985,-4817,2025-01-27 14:10:21,0.0
-8968,1560,-1880,-492,177,-5014,2025-01-27 14:10:21,0.0
-9116,1520,-1416,-899,217,-4777,2025-01-27 14:10:21,0.0
-8400,980,-2120,-1285,356,-4592,2025-01-27 14:10:21,0.0
-8264,404,-3280,-1645,2138,-5115,2025-01-27 14:10:21,0.0
-9952,480,-4040,-1662,4562,-5996,2025-01-27 14:10:21,0.0
-12324,352,-4180,-1542,5434,-6234,2025-01-27 14:10:22,0.0
-14772,336,-3652,-1799,4512,-5364,2025-01-27 14:10:22,0.0
-15832,-708,-2532,-2158,2662,-3527,2025-01-27 14:10:22,0.0
-14636,-1864,-1436,-2229,98,-1859,2025-01-27 14:10:22,0.0
-12448,-2092,-316,-1348,-2172,-941,2025-01-27 14:10:22,0.0
-9964,-1600,-1832,-454,-4256,-1034,2025-01-27 14:10:22,0.0
-9252,-400,-3056,150,-4125,-1135,2025-01-27 14:10:22,0.0
-9924,568,-5288,388,-849,-1139,2025-01-27 14:10:22,0.0
-12188,108,-7952,-548,4272,-468,2025-01-27 14:10:22,0.0
-14372,-532,-12968,-2898,8069,222,2025-01-27 14:10:22,0.0
-16760,-1868,-14416,-4471,9212,802,2025-01-27 14:10:22,0.0
-16828,-3144,-9764,-4205,8441,1005,2025-01-27 14:10:22,0.0
-15768,-3376,-8296,-2676,5412,603,2025-01-27 14:10:22,0.0
-16480,-4752,-11548,-2664,4672,53,2025-01-27 14:10:22,0.0
-17868,-6372,-10044,-2713,5583,-1703,2025-01-27 14:10:22,0.0
-21736,-4128,-4844,-815,3913,-2678,2025-01-27 14:10:22,0.0
-23728,-1364,-3564,627,1622,-1605,2025-01-27 14:10:22,0.0
-21744,-120,-5380,358,-2587,-1579,2025-01-27 14:10:22,0.0
-20612,-1312,-6424,38,-4419,-1260,2025-01-27 14:10:22,0.0
-18092,-3680,-6540,-367,-4134,-607,2025-01-27 14:10:22,0.0
-14996,-5908,-5164,-372,-3605,103,2025-01-27 14:10:22,0.0
-11980,-7184,-4492,691,-2477,-196,2025-01-27 14:10:22,0.0
-10996,-5684,-4016,2007,-1443,-306,2025-01-27 14:10:22,0.0
-9116,-3016,-4240,2996,-569,190,2025-01-27 14:10:22,0.0
-7844,-1236,-4108,2946,251,-63,2025-01-27 14:10:22,0.0
-7520,-380,-4376,2181,713,-223,2025-01-27 14:10:22,0.0
-7468,-412,-4176,1168,1101,-121,2025-01-27 14:10:22,0.0
-7932,-1448,-3792,218,2167,327,2025-01-27 14:10:22,0.0
-9524,-2296,-3892,-691,3573,1000,2025-01-27 14:10:22,0.0
-10712,-3076,-4124,-1375,3733,1489,2025-01-27 14:10:22,0.0
-11832,-3096,-4184,-1801,2388,1846,2025-01-27 14:10:22,0.0
-12232,-2676,-4108,-1988,748,2331,2025-01-27 14:10:22,0.0
-12112,-1724,-3056,-2133,-512,3024,2025-01-27 14:10:22,0.0
-11376,-1168,-1668,-2068,-1543,3503,2025-01-27 14:10:22,0.0
-10052,-1012,-2064,-2045,-2750,4038,2025-01-27 14:10:22,0.0
-8812,-1188,-2456,-2342,-3194,4896,2025-01-27 14:10:22,0.0
-7320,-1540,-1664,-2305,-2201,5167,2025-01-27 14:10:22,0.0
-6892,-1904,-2248,-1761,-428,4671,2025-01-27 14:10:22,0.0
-7428,-2796,-2520,-1194,383,3672,2025-01-27 14:10:22,0.0
-9044,-3032,-2288,-529,605,2564,2025-01-27 14:10:22,0.0
-11008,-2692,-3044,-97,1164,2479,2025-01-27 14:10:22,0.0
-10612,-1972,-4024,503,1322,2682,2025-01-27 14:10:22,0.0
-9944,-1216,-4092,723,1274,2382,2025-01-27 14:10:22,0.0
-10004,-764,-2208,649,1933,1599,2025-01-27 14:10:22,0.0
-11108,-992,-1736,270,1715,1314,2025-01-27 14:10:22,0.0
-12372,-1428,-2040,195,765,1335,2025-01-27 14:10:22,0.0
-12744,-2368,-3664,175,-1122,1402,2025-01-27 14:10:22,0.0
-11872,-2868,-5420,368,-2639,996,2025-01-27 14:10:22,0.0
-12332,-1792,-8448,1854,-2331,-276,2025-01-27 14:10:22,0.0
-13636,-2284,-8260,4112,21,-2544,2025-01-27 14:10:22,0.0
-16516,-2156,-7532,6799,1361,-4580,2025-01-27 14:10:22,0.0
-24132,-472,-9328,5942,-1952,-1539,2025-01-27 14:10:22,0.0
-26300,1924,-11292,3576,-5576,4584,2025-01-27 14:10:22,0.0
-21236,644,-9696,2619,-7749,6992,2025-01-27 14:10:22,0.0
-16804,840,-8664,3921,-7453,4815,2025-01-27 14:10:22,0.0
-15476,824,-8628,3351,-5072,1894,2025-01-27 14:10:22,0.0
-15320,1164,-7296,2023,-2727,214,2025-01-27 14:10:22,0.0
-16152,2492,-6228,911,-1662,-874,2025-01-27 14:10:22,0.0
-17224,3736,-6292,8,-1944,-943,2025-01-27 14:10:22,0.0
-17748,4756,-6092,-1242,-1654,-271,2025-01-27 14:10:22,0.0
-17720,4332,-5404,-2215,-1096,927,2025-01-27 14:10:22,0.0
-16148,2584,-5520,-2999,-436,1769,2025-01-27 14:10:23,0.0
-13564,308,-4176,-3183,-301,2038,2025-01-27 14:10:23,0.0
-11520,-1160,-3320,-2613,-363,1900,2025-01-27 14:10:23,0.0
-9900,-904,-3212,-1743,-119,1767,2025-01-27 14:10:23,0.0
-8260,-100,-3992,-1171,700,1708,2025-01-27 14:10:23,0.0
-7600,452,-3984,-1140,2000,1493,2025-01-27 14:10:23,0.0
-7880,1092,-2772,-1186,3215,791,2025-01-27 14:10:23,0.0
-8792,1456,-1836,-984,2948,137,2025-01-27 14:10:23,0.0
-9580,1504,-2176,-625,1932,-369,2025-01-27 14:10:23,0.0
-9308,1084,-2716,-235,754,-1158,2025-01-27 14:10:23,0.0
-8744,1044,-3268,213,-66,-2286,2025-01-27 14:10:23,0.0
-8248,1432,-2704,290,-135,-3237,2025-01-27 14:10:23,0.0
-8136,1728,-2076,-155,251,-3851,2025-01-27 14:10:23,
-8312,1756,-1520,-684,490,-4819,2025-01-27 14:10:23,0.0
-9556,1444,-1396,-1068,284,-6246,2025-01-27 14:10:23,0.0
-10356,1356,-1572,-876,-913,-7071,2025-01-27 14:10:23,0.0
-10160,1912,-2088,-443,-2192,-7051,2025-01-27 14:10:23,0.0
-8876,1632,-3592,-763,-2156,-7046,2025-01-27 14:10:23,0.0
-8240,148,-4396,-1897,531,-7051,2025-01-27 14:10:23,0.0
-10528,-452,-3812,-2448,4152,-6004,2025-01-27 14:10:23,0.0
-12048,-1408,-3808,-2149,5633,-4441,2025-01-27 14:10:23,0.0
-13420,-2520,-3084,-1527,5366,-3310,2025-01-27 14:10:23,0.0
-14624,-2780,-2600,-384,2912,-2363,2025-01-27 14:10:23,0.0
-15660,-1988,-1952,653,628,-1396,2025-01-27 14:10:23,0.0
-15564,-164,-996,1632,-612,-199,2025-01-27 14:10:23,0.0
-14480,1212,-1488,1763,-1678,782,2025-01-27 14:10:23,0.0
-12216,1104,-2316,1242,-3165,1407,2025-01-27 14:10:23,0.0
-10076,676,-2852,1076,-2634,1735,2025-01-27 14:10:23,0.0
-9680,320,-3200,684,1215,2010,2025-01-27 14:10:23,0.0
-10360,-804,-5416,1020,3998,2071,2025-01-27 14:10:23,0.0
-11800,-1624,-9044,463,4973,1712,2025-01-27 14:10:23,0.0
-14296,-1560,-9108,-157,5455,1425,2025-01-27 14:10:23,0.0
-17024,-1996,-10164,-1106,6098,1018,2025-01-27 14:10:23,0.0
-18032,-1256,-11172,-2095,4566,-111,2025-01-27 14:10:23,0.0
-19940,144,-10636,-2133,1540,-868,2025-01-27 14:10:23,0.0
-18796,-1008,-8740,-1741,-251,-1012,2025-01-27 14:10:23,0.0
-18596,-2708,-9284,-1679,-384,-389,2025-01-27 14:10:23,0.0
-19604,-4168,-9664,-1420,621,439,2025-01-27 14:10:23,0.0
-19612,-4232,-7628,-1779,-199,822,2025-01-27 14:10:23,0.0
-17852,-3520,-3832,-706,-2253,-139,2025-01-27 14:10:23,0.0
-16144,-3100,-2372,1340,-4131,-1068,2025-01-27 14:10:23,0.0
-13856,-2548,-3956,2179,-5016,-1363,2025-01-27 14:10:23,0.0
-11856,-2164,-5376,2095,-4149,-1419,2025-01-27 14:10:23,0.0
-10268,-2540,-6524,1767,-2098,-1102,2025-01-27 14:10:23,0.0
-9596,-2636,-5944,1339,848,-845,2025-01-27 14:10:23,0.0
-9764,-2908,-4832,955,2925,-420,2025-01-27 14:10:23,0.0
-9816,-2572,-3912,877,2932,-237,2025-01-27 14:10:23,0.0
-10604,-1644,-4436,705,2037,-162,2025-01-27 14:10:23,0.0
-10692,-704,-4964,409,1790,173,2025-01-27 14:10:23,0.0
-10496,-476,-5348,-46,1387,544,2025-01-27 14:10:23,0.0
-9656,-1280,-5212,-483,1229,850,2025-01-27 14:10:23,0.0
-8972,-1960,-5056,-843,1412,690,2025-01-27 14:10:23,0.0
-9884,-2132,-5288,-1218,2154,568,2025-01-27 14:10:23,0.0
-11212,-1860,-4396,-1536,1794,594,2025-01-27 14:10:23,0.0
-12400,-1268,-3020,-1696,-324,839,2025-01-27 14:10:23,0.0
-12428,-624,-1984,-1596,-2433,1313,2025-01-27 14:10:23,0.0
-11644,-420,-3456,-1719,-2821,2106,2025-01-27 14:10:23,0.0
-11336,-828,-4064,-2436,-1805,2809,2025-01-27 14:10:23,0.0
-11364,-1240,-3428,-3229,-454,3454,2025-01-27 14:10:23,0.0
-10080,-2460,-2228,-3752,-640,3523,2025-01-27 14:10:23,0.0
-7856,-2912,-1296,-3297,-1564,2316,2025-01-27 14:10:24,0.0
-6660,-2228,-1584,-2124,-513,797,2025-01-27 14:10:24,0.0
-6828,-1204,-2744,-1636,2417,209,2025-01-27 14:10:24,0.0
-8036,-460,-4128,-1906,5325,429,2025-01-27 14:10:24,0.0
-10288,-120,-5048,-2735,7587,848,2025-01-27 14:10:24,0.0
-12460,-1080,-4820,-3756,7225,445,2025-01-27 14:10:24,0.0
-14000,-1716,-2984,-3660,4469,-440,2025-01-27 14:10:24,0.0
-14648,-1120,-1860,-2530,-194,-1166,2025-01-27 14:10:24,0.0
-14280,-912,-2384,-1795,-3078,-1052,2025-01-27 14:10:24,0.0
-13124,-696,-3692,-1862,-3461,-533,2025-01-27 14:10:24,0.0
-11972,-572,-3784,-2094,-2660,228,2025-01-27 14:10:24,0.0
-10996,-1588,-3392,-2532,-1496,857,2025-01-27 14:10:24,0.0
-10420,-3808,-4412,-2257,-525,73,2025-01-27 14:10:24,0.0
-13104,-4596,-3988,-428,735,-1202,2025-01-27 14:10:24,0.0
-15964,-4864,-5476,1483,2368,-2303,2025-01-27 14:10:24,0.0
-18420,-4044,-8788,2706,1630,-2679,2025-01-27 14:10:24,0.0
-22352,-884,-12000,3623,-2110,-883,2025-01-27 14:10:24,0.0
-22944,2696,-9108,3895,-5930,1785,2025-01-27 14:10:24,0.0
-20260,3272,-9980,3091,-8513,2053,2025-01-27 14:10:24,0.0
-17416,2980,-13128,2438,-8310,83,2025-01-27 14:10:24,0.0
-16032,1980,-10048,2371,-5673,-2814,2025-01-27 14:10:24,0.0
-15928,-384,-6944,2004,-3838,-2163,2025-01-27 14:10:24,0.0
-15328,-968,-6264,643,-2193,832,2025-01-27 14:10:24,0.0
-13844,-284,-4324,-260,-537,2635,2025-01-27 14:10:24,0.0
-13884,380,-4664,-510,-211,2210,2025-01-27 14:10:24,0.0
-13944,1576,-4824,-105,-1376,1848,2025-01-27 14:10:24,0.0
-12876,1484,-5396,454,-1739,1518,2025-01-27 14:10:24,0.0
-11616,968,-5368,314,-1214,1405,2025-01-27 14:10:24,0.0
-10120,1076,-4604,260,-617,1566,2025-01-27 14:10:24,0.0
-8976,1368,-3704,253,183,1903,2025-01-27 14:10:24,0.0
-8440,1132,-3500,-8,1218,1967,2025-01-27 14:10:24,0.0
-8768,924,-3140,206,2380,1612,2025-01-27 14:10:24,0.0
-10432,300,-3596,702,3129,1062,2025-01-27 14:10:24,0.0
-12240,-136,-3252,1570,2867,568,2025-01-27 14:10:24,0.0
-13544,504,-2892,2609,1660,-6,2025-01-27 14:10:24,0.0
-14092,1444,-4112,2757,-179,-355,2025-01-27 14:10:24,0.0
-14152,2204,-5064,2566,-2173,-448,2025-01-27 14:10:24,0.0
-13056,2208,-5772,2040,-3020,-560,2025-01-27 14:10:24,0.0
-11920,1684,-4780,1223,-2632,-857,2025-01-27 14:10:24,0.0
-11124,1148,-3336,814,-1272,-1139,2025-01-27 14:10:24,0.0
-11536,684,-2096,845,494,-1138,2025-01-27 14:10:24,0.0
-11972,-712,-1580,1164,1050,-893,2025-01-27 14:10:24,0.0
-11736,-2480,-872,2232,1158,-836,2025-01-27 14:10:24,0.0
-12120,-2528,-2068,3508,1728,-752,2025-01-27 14:10:24,0.0
-12460,-836,-3872,3791,3238,-555,2025-01-27 14:10:24,0.0
-12432,516,-3716,4341,3441,-267,2025-01-27 14:10:24,0.0
-12844,1400,-3552,4917,3112,29,2025-01-27 14:10:24,0.0
-12624,1288,-4236,5144,2827,145,2025-01-27 14:10:24,0.0
-12712,800,-3580,5485,3116,261,2025-01-27 14:10:24,0.0
-12836,1700,-4188,6608,4296,954,2025-01-27 14:10:24,0.0
-13180,1500,-6656,6794,6212,1457,2025-01-27 14:10:24,0.0
-13584,512,-7896,6086,7512,1721,2025-01-27 14:10:24,0.0
-14588,-108,-9112,4819,7829,1955,2025-01-27 14:10:24,
