acceleration_x,acceleration_y,acceleration_z,gyroscope_x,gyroscope_y,gyroscope_z,timestamp,label
-11864,-524,-5900,992,36,143,2025-01-27 14:11:19,0.0
-11932,-380,-5852,1036,-49,239,2025-01-27 14:11:19,0.0
-11824,-496,-5856,935,36,357,2025-01-27 14:11:19,0.0
-11732,-632,-6028,762,267,455,2025-01-27 14:11:19,0.0
-11640,-712,-6004,575,645,496,2025-01-27 14:11:20,0.0
-11836,-664,-6192,494,963,500,2025-01-27 14:11:20,0.0
-11972,-744,-6648,525,865,391,2025-01-27 14:11:20,0.0
-12156,-504,-6788,623,518,238,2025-01-27 14:11:20,0.0
-11964,-304,-6744,757,72,160,2025-01-27 14:11:20,0.0
-11712,-452,-6660,739,-207,77,2025-01-27 14:11:20,0.0
-11620,-480,-6612,682,-337,19,2025-01-27 14:11:20,0.0
-11668,-584,-6312,617,-202,28,2025-01-27 14:11:20,0.0
-11748,-468,-6308,577,237,26,2025-01-27 14:11:20,0.0
-11920,-356,-6192,471,567,53,2025-01-27 14:11:20,0.0
-12072,-152,-6268,279,549,31,2025-01-27 14:11:20,0.0
-12064,-136,-6548,182,289,19,2025-01-27 14:11:20,0.0
-11964,-68,-6632,81,56,43,2025-01-27 14:11:20,0.0
-11708,-208,-6728,-11,-147,-20,2025-01-27 14:11:20,0.0
-11604,-292,-6560,-47,-90,-44,2025-01-27 14:11:20,0.0
-11600,-440,-6288,-31,191,-123,2025-01-27 14:11:20,0.0
-11772,-712,-6240,-21,216,-168,2025-01-27 14:11:20,0.0
-12008,-724,-6220,49,258,-104,2025-01-27 14:11:20,0.0
-12068,-760,-6048,139,300,-73,2025-01-27 14:11:20,0.0
-12052,-768,-5980,228,257,-20,2025-01-27 14:11:20,0.0
-12048,-716,-6228,363,28,18,2025-01-27 14:11:20,0.0
-11996,-692,-6352,446,42,44,2025-01-27 14:11:20,0.0
-11772,-636,-6052,534,139,83,2025-01-27 14:11:20,0.0
-12032,-592,-6124,593,215,112,2025-01-27 14:11:20,0.0
-12088,-540,-6172,668,223,150,2025-01-27 14:11:20,0.0
-12168,-776,-6028,717,189,213,2025-01-27 14:11:20,0.0
-12164,-872,-5908,842,45,258,2025-01-27 14:11:20,0.0
-12144,-800,-5912,996,38,304,2025-01-27 14:11:20,0.0
-12016,-832,-5940,1052,130,330,2025-01-27 14:11:20,0.0
-11944,-800,-6180,1109,142,365,2025-01-27 14:11:20,0.0
-11948,-628,-6376,1134,104,348,2025-01-27 14:11:20,0.0
-11872,-580,-6416,1133,191,339,2025-01-27 14:11:20,0.0
-11852,-580,-6180,1167,226,319,2025-01-27 14:11:20,0.0
-11972,-564,-6220,1190,117,339,2025-01-27 14:11:20,0.0
-12024,-568,-6372,1212,-21,341,2025-01-27 14:11:20,0.0
-11960,-652,-6348,1254,-64,357,2025-01-27 14:11:20,0.0
-11760,-596,-6244,1263,-65,391,2025-01-27 14:11:20,0.0
-12068,-752,-6288,1341,-20,403,2025-01-27 14:11:20,0.0
-11752,-748,-6360,1392,-53,430,2025-01-27 14:11:20,0.0
-11796,-732,-6268,1458,-17,420,2025-01-27 14:11:20,0.0
-11864,-712,-6188,1541,70,460,2025-01-27 14:11:20,0.0
-11944,-860,-6136,1651,75,552,2025-01-27 14:11:20,0.0
-11872,-876,-6180,1688,124,551,2025-01-27 14:11:20,0.0
-11896,-892,-6120,1781,150,547,2025-01-27 14:11:20,0.0
-11888,-952,-6148,1859,227,602,2025-01-27 14:11:20,0.0
-11968,-812,-6176,1838,230,619,2025-01-27 14:11:20,0.0
-12040,-796,-6260,1874,249,677,2025-01-27 14:11:20,0.0
-11940,-772,-6300,1873,252,680,2025-01-27 14:11:20,0.0
-11964,-576,-6292,1812,269,709,2025-01-27 14:11:20,0.0
-11860,-672,-6216,1762,169,689,2025-01-27 14:11:20,0.0
-11856,-712,-6320,1784,136,655,2025-01-27 14:11:20,0.0
-11876,-596,-6388,1741,90,646,2025-01-27 14:11:20,0.0
-11800,-584,-6376,1679,67,607,2025-01-27 14:11:20,0.0
-11756,-644,-6472,1634,146,574,2025-01-27 14:11:20,0.0
-11640,-696,-6316,1540,195,515,2025-01-27 14:11:20,0.0
-11672,-568,-6516,1512,123,444,2025-01-27 14:11:20,0.0
-11608,-528,-6212,1440,209,385,2025-01-27 14:11:20,0.0
-11704,-692,-6408,1395,298,369,2025-01-27 14:11:20,0.0
-11836,-560,-6336,1334,352,280,2025-01-27 14:11:20,0.0
-11892,-508,-6208,1222,367,290,2025-01-27 14:11:20,0.0
-12064,-532,-6400,1114,311,268,2025-01-27 14:11:20,0.0
-11896,-592,-6344,1039,255,274,2025-01-27 14:11:21,0.0
-11900,-652,-6376,939,280,247,2025-01-27 14:11:21,0.0
-11788,-644,-6484,888,351,259,2025-01-27 14:11:21,0.0
-11832,-644,-6524,808,481,258,2025-01-27 14:11:21,0.0
-11840,-580,-6660,734,504,229,2025-01-27 14:11:21,0.0
-11948,-688,-6724,636,388,256,2025-01-27 14:11:21,0.0
-12016,-768,-6476,630,259,346,2025-01-27 14:11:21,0.0
-11968,-724,-6500,562,136,368,2025-01-27 14:11:21,0.0
-11960,-672,-6344,427,60,368,2025-01-27 14:11:21,0.0
-12072,-624,-6136,436,20,402,2025-01-27 14:11:21,0.0
-12016,-708,-6284,409,80,494,2025-01-27 14:11:21,0.0
-12004,-688,-6288,427,151,558,2025-01-27 14:11:21,0.0
-12200,-776,-6224,407,179,622,2025-01-27 14:11:21,0.0
-12084,-628,-6284,427,11,654,2025-01-27 14:11:21,0.0
-11828,-220,-6416,271,92,644,2025-01-27 14:11:21,0.0
-11828,-272,-6300,103,204,598,2025-01-27 14:11:21,0.0
-11756,-204,-6312,42,217,618,2025-01-27 14:11:21,0.0
-12000,-408,-6548,-114,334,697,2025-01-27 14:11:21,0.0
-11940,-612,-6624,-195,346,679,2025-01-27 14:11:21,0.0
-12156,-436,-6620,-164,99,595,2025-01-27 14:11:21,0.0
-12060,-292,-6440,-274,-6,572,2025-01-27 14:11:21,0.0
-12060,-316,-6404,-332,-256,480,2025-01-27 14:11:21,0.0
-11828,-16,-6332,-247,-786,372,2025-01-27 14:11:21,0.0
-11504,408,-6440,-295,-883,284,2025-01-27 14:11:21,0.0
-11032,840,-6668,-388,-463,178,2025-01-27 14:11:21,0.0
-11136,1076,-6548,-655,90,23,2025-01-27 14:11:21,0.0
-11416,1112,-6284,-784,164,-294,2025-01-27 14:11:21,0.0
-11712,832,-5992,-875,-89,-739,2025-01-27 14:11:21,0.0
-12088,476,-5452,-847,-568,-1106,2025-01-27 14:11:21,0.0
-12408,148,-5336,-530,-921,-1168,2025-01-27 14:11:21,0.0
-12336,192,-5368,-329,-1180,-1218,2025-01-27 14:11:21,0.0
-12196,396,-5548,-202,-1324,-1320,2025-01-27 14:11:21,0.0
-12120,652,-5628,-109,-1338,-1436,2025-01-27 14:11:21,0.0
-12184,788,-5848,-108,-1109,-1513,2025-01-27 14:11:21,0.0
-12228,652,-6012,-264,-1230,-1771,2025-01-27 14:11:21,
-12336,384,-6284,-365,-1471,-2077,2025-01-27 14:11:21,0.0
-12712,-40,-6460,-564,-1948,-2382,2025-01-27 14:11:21,0.0
-13016,-788,-6176,-539,-2485,-2488,2025-01-27 14:11:21,0.0
-12704,-1948,-5720,-94,-2959,-2459,2025-01-27 14:11:21,0.0
-11744,-2600,-5812,724,-3197,-2237,2025-01-27 14:11:21,0.0
-10388,-2660,-6396,1710,-2381,-2088,2025-01-27 14:11:21,0.0
-9480,-2920,-6056,2479,-142,-1878,2025-01-27 14:11:21,0.0
-9780,-3284,-5172,3272,2136,-1389,2025-01-27 14:11:21,0.0
-10748,-3332,-4620,3921,3976,-767,2025-01-27 14:11:21,0.0
-12584,-2532,-4508,4148,4627,-386,2025-01-27 14:11:21,0.0
-14544,-2540,-4684,4111,4432,-420,2025-01-27 14:11:21,0.0
-15616,-2984,-4756,4038,3332,-1147,2025-01-27 14:11:21,0.0
-16780,-2416,-4624,3969,1077,-2557,2025-01-27 14:11:21,0.0
-17176,-1436,-4312,3621,-2333,-3432,2025-01-27 14:11:21,0.0
-14960,-924,-3812,3364,-4742,-4172,2025-01-27 14:11:21,0.0
-12612,-1204,-3928,3128,-5856,-5056,2025-01-27 14:11:21,0.0
-11308,-1868,-3856,2575,-5639,-5359,2025-01-27 14:11:21,0.0
-10004,-2848,-3984,1970,-3768,-4865,2025-01-27 14:11:21,0.0
-9432,-3788,-3968,1571,-1541,-4630,2025-01-27 14:11:21,0.0
-9008,-4256,-3768,1549,479,-5105,2025-01-27 14:11:21,0.0
-10144,-4652,-3988,1582,1730,-5703,2025-01-27 14:11:21,0.0
-12208,-4296,-3692,1440,2125,-6120,2025-01-27 14:11:21,0.0
-13872,-4148,-3656,1349,1386,-6211,2025-01-27 14:11:21,0.0
-15080,-3920,-3476,1154,-247,-5804,2025-01-27 14:11:21,0.0
-14612,-3944,-3364,1143,-2181,-4939,2025-01-27 14:11:21,0.0
-13324,-3820,-3452,926,-3175,-3991,2025-01-27 14:11:21,0.0
-12060,-3884,-3012,704,-3310,-3468,2025-01-27 14:11:22,0.0
-10916,-3904,-3472,431,-2661,-3334,2025-01-27 14:11:22,0.0
-10752,-4144,-3432,-77,-1357,-3287,2025-01-27 14:11:22,0.0
-10708,-4216,-3632,-281,-458,-3154,2025-01-27 14:11:22,0.0
-11432,-4828,-3132,-531,93,-2702,2025-01-27 14:11:22,0.0
-12288,-5296,-2308,-877,283,-1517,2025-01-27 14:11:22,0.0
-12256,-5344,-2192,-1007,410,-601,2025-01-27 14:11:22,0.0
-12148,-5184,-2192,-1163,171,-69,2025-01-27 14:11:22,0.0
-11832,-4884,-2064,-1260,194,317,2025-01-27 14:11:22,0.0
-11640,-4872,-2612,-1420,778,484,2025-01-27 14:11:22,0.0
-12228,-4964,-2440,-1675,1081,571,2025-01-27 14:11:22,0.0
-13044,-4996,-2648,-1832,759,917,2025-01-27 14:11:22,0.0
-13196,-4604,-2800,-2025,270,1250,2025-01-27 14:11:22,0.0
-12828,-4376,-3220,-2276,-58,1336,2025-01-27 14:11:22,0.0
-12112,-4564,-3760,-2720,0,1180,2025-01-27 14:11:22,0.0
-12052,-4688,-4052,-3347,430,858,2025-01-27 14:11:22,0.0
-12776,-4960,-3648,-3838,916,777,2025-01-27 14:11:22,0.0
-13272,-5092,-3696,-4152,984,795,2025-01-27 14:11:22,0.0
-13804,-5672,-5648,-4201,255,1090,2025-01-27 14:11:22,0.0
-14088,-6016,-7216,-5136,-920,309,2025-01-27 14:11:22,0.0
-15316,-6616,-5144,-4876,-1632,-1885,2025-01-27 14:11:22,0.0
-17820,-5128,-4160,-3956,-2404,-3569,2025-01-27 14:11:22,0.0
-19064,-4788,-4848,-4786,-2841,-3662,2025-01-27 14:11:22,0.0
-18532,-6060,-6032,-5689,-2843,-2388,2025-01-27 14:11:22,0.0
-17260,-8252,-7548,-5186,-1546,-659,2025-01-27 14:11:22,0.0
-16332,-7908,-8208,-3273,-484,825,2025-01-27 14:11:22,0.0
-15960,-6836,-8272,-2552,1977,1352,2025-01-27 14:11:22,0.0
-16468,-5472,-7776,-2893,2719,1683,2025-01-27 14:11:22,0.0
-16568,-4360,-7484,-3117,1317,2286,2025-01-27 14:11:22,0.0
-15372,-3372,-7280,-2733,-186,3116,2025-01-27 14:11:22,0.0
-13732,-1948,-6772,-2794,-885,4343,2025-01-27 14:11:22,0.0
-12188,-1084,-6152,-2966,-403,5349,2025-01-27 14:11:22,0.0
-11032,-940,-6128,-3024,1458,5945,2025-01-27 14:11:22,0.0
-10460,-1840,-6872,-3057,3927,6115,2025-01-27 14:11:22,0.0
-11080,-2804,-6636,-2737,5367,5973,2025-01-27 14:11:22,0.0
-12536,-3268,-6016,-2355,4607,5852,2025-01-27 14:11:22,0.0
-13048,-3092,-5448,-1877,2998,5814,2025-01-27 14:11:22,0.0
-13048,-2284,-5196,-1329,1169,6083,2025-01-27 14:11:22,0.0
-12900,-1192,-5292,-937,-530,6862,2025-01-27 14:11:22,0.0
-11680,256,-5764,-921,-1363,7682,2025-01-27 14:11:22,0.0
-9716,704,-5716,-1361,-1789,8081,2025-01-27 14:11:22,0.0
-8356,788,-5212,-1644,-1518,7846,2025-01-27 14:11:22,0.0
-7788,256,-4696,-1816,-795,7393,2025-01-27 14:11:22,0.0
-7984,-272,-4320,-1781,217,7038,2025-01-27 14:11:22,0.0
-8572,-592,-4460,-1584,1407,7107,2025-01-27 14:11:22,0.0
-9776,-612,-3728,-1426,1820,7606,2025-01-27 14:11:22,0.0
-9692,440,-3844,-1077,856,7965,2025-01-27 14:11:22,0.0
-10024,1256,-3384,-699,-535,7575,2025-01-27 14:11:22,0.0
-9684,1748,-3048,-221,-2073,6612,2025-01-27 14:11:22,0.0
-9944,2024,-3528,197,-3219,5336,2025-01-27 14:11:22,0.0
-9988,1700,-3676,-351,-3118,5001,2025-01-27 14:11:22,0.0
-9836,1504,-2784,-139,-3046,4468,2025-01-27 14:11:22,0.0
-9724,1340,-3880,358,-2364,4292,2025-01-27 14:11:22,0.0
-9140,1312,-4276,862,-1173,4207,2025-01-27 14:11:22,0.0
-9664,2008,-4036,1300,-989,3699,2025-01-27 14:11:22,0.0
-10788,2604,-3420,1781,-1075,3352,2025-01-27 14:11:22,0.0
-12372,2904,-3220,1784,-1311,3327,2025-01-27 14:11:22,0.0
-12792,3336,-2420,1713,-2476,3477,2025-01-27 14:11:22,0.0
-11952,3620,-2216,1584,-3842,3280,2025-01-27 14:11:22,0.0
-10660,4040,-1660,1197,-5518,1926,2025-01-27 14:11:22,0.0
-10124,3832,-1884,609,-4491,419,2025-01-27 14:11:22,0.0
-10324,3452,-636,879,-2184,-938,2025-01-27 14:11:23,0.0
-11484,2056,208,1890,-624,-1763,2025-01-27 14:11:23,0.0
-12008,924,500,2910,-866,-2989,2025-01-27 14:11:23,0.0
-13456,560,-2140,3336,-1365,-4024,2025-01-27 14:11:23,0.0
-15824,1276,-4812,3649,-1450,-4029,2025-01-27 14:11:23,0.0
-21000,2476,-6308,4242,-181,-2094,2025-01-27 14:11:23,0.0
-29140,2948,-8520,3617,2867,3516,2025-01-27 14:11:23,0.0
-28132,2056,-6252,2821,467,7237,2025-01-27 14:11:23,0.0
-22476,4768,-8668,710,-5761,6180,2025-01-27 14:11:23,0.0
-13812,7552,-8604,-1476,-7757,1744,2025-01-27 14:11:23,0.0
-7892,6644,-7720,-1158,-5483,-4162,2025-01-27 14:11:23,0.0
-9200,4464,-8024,-333,1187,-6839,2025-01-27 14:11:23,0.0
-10932,2852,-6896,1336,6475,-5863,2025-01-27 14:11:23,
-10768,1468,-7364,1981,7091,-5015,2025-01-27 14:11:23,0.0
-11508,716,-8268,1473,5533,-5602,2025-01-27 14:11:23,0.0
-13296,292,-8492,514,5110,-6509,2025-01-27 14:11:23,0.0
-13696,156,-7620,147,7147,-7268,2025-01-27 14:11:23,0.0
-12560,656,-7140,212,8782,-8480,2025-01-27 14:11:23,0.0
-12056,876,-5548,319,7928,-9749,2025-01-27 14:11:23,0.0
-10996,436,-4008,1008,4759,-10361,2025-01-27 14:11:23,0.0
-12020,-656,-4276,1366,1088,-9715,2025-01-27 14:11:23,0.0
-11620,-2076,-5124,1098,-749,-8431,2025-01-27 14:11:23,0.0
-10720,-2720,-4816,1018,-1098,-6797,2025-01-27 14:11:23,0.0
-8968,-2980,-4108,1719,-1102,-5457,2025-01-27 14:11:23,0.0
-7244,-3284,-3696,2482,-670,-4970,2025-01-27 14:11:23,0.0
-6324,-2600,-3748,3011,-332,-5379,2025-01-27 14:11:23,0.0
-6264,-1644,-4324,3078,-315,-6038,2025-01-27 14:11:23,0.0
-7236,-728,-4136,2863,-444,-6624,2025-01-27 14:11:23,0.0
-8272,-344,-4104,2550,-463,-6891,2025-01-27 14:11:23,0.0
-9160,-1076,-3532,1977,-369,-6781,2025-01-27 14:11:23,0.0
-9804,-1104,-3540,1530,-390,-6438,2025-01-27 14:11:23,0.0
-9788,-1832,-3680,1162,-1105,-6336,2025-01-27 14:11:23,0.0
-11372,-2932,-3732,343,-1718,-5254,2025-01-27 14:11:23,0.0
-11432,-2964,-3568,126,-1638,-3838,2025-01-27 14:11:23,0.0
-11008,-2932,-3308,158,-1036,-3419,2025-01-27 14:11:23,0.0
-11268,-3856,-3636,-87,-532,-3493,2025-01-27 14:11:23,0.0
-11340,-4372,-3524,-222,272,-3331,2025-01-27 14:11:23,0.0
-12040,-4944,-2188,64,504,-3330,2025-01-27 14:11:23,0.0
-13948,-5624,-1776,133,-189,-2438,2025-01-27 14:11:23,0.0
-14336,-5192,-1792,259,-961,-1089,2025-01-27 14:11:23,0.0
-14076,-5016,-1500,472,-1506,-169,2025-01-27 14:11:23,0.0
-13200,-4980,-2096,660,-1857,964,2025-01-27 14:11:23,0.0
-11600,-4328,-3128,-24,-1225,1445,2025-01-27 14:11:23,0.0
-11508,-3748,-3152,-1213,-101,1430,2025-01-27 14:11:23,0.0
-13404,-2876,-3372,-2469,667,1172,2025-01-27 14:11:23,0.0
-15532,-2032,-4452,-3169,239,1339,2025-01-27 14:11:23,0.0
-16596,-1556,-5872,-3577,-747,1057,2025-01-27 14:11:23,0.0
-15128,-2556,-9036,-3492,-1433,846,2025-01-27 14:11:23,0.0
-13896,-5880,-10008,-4085,-181,-189,2025-01-27 14:11:23,0.0
-15800,-8792,-6052,-4405,4245,-3923,2025-01-27 14:11:23,0.0
-20172,-5880,-4956,-3098,4288,-4654,2025-01-27 14:11:23,0.0
-23972,-3716,-8708,-1849,-222,-2242,2025-01-27 14:11:23,0.0
-21760,-4756,-12520,-2918,-2285,1875,2025-01-27 14:11:23,0.0
-14504,-4560,-9624,-2900,-1907,3183,2025-01-27 14:11:23,0.0
-11748,-3260,-8296,-2666,-79,3362,2025-01-27 14:11:23,0.0
-10840,-2576,-7916,-2382,1899,4197,2025-01-27 14:11:23,0.0
-10680,-2348,-8012,-1703,4180,5029,2025-01-27 14:11:23,0.0
-10900,-3552,-8528,-1219,5543,5005,2025-01-27 14:11:23,0.0
-12160,-3948,-8632,-1048,5435,4308,2025-01-27 14:11:23,0.0
-14240,-3392,-7728,-1082,4290,4399,2025-01-27 14:11:23,0.0
-15096,-2264,-6828,-902,2772,5782,2025-01-27 14:11:23,0.0
-14516,-1260,-6244,-844,118,7501,2025-01-27 14:11:24,0.0
-12656,-412,-5940,-806,-2641,8570,2025-01-27 14:11:24,0.0
-10048,836,-5184,-738,-3876,8869,2025-01-27 14:11:24,0.0
-8476,1576,-5096,-1355,-3708,8704,2025-01-27 14:11:24,0.0
-6580,2724,-5264,-2703,-2298,8416,2025-01-27 14:11:24,0.0
-5408,3028,-5308,-3641,-1062,7299,2025-01-27 14:11:24,0.0
-4676,2860,-5064,-4369,-194,5527,2025-01-27 14:11:24,0.0
-5348,2280,-4672,-4917,792,3861,2025-01-27 14:11:24,0.0
-7076,1624,-4368,-5281,2243,3115,2025-01-27 14:11:24,0.0
-9104,528,-4092,-5267,3294,3393,2025-01-27 14:11:24,0.0
-10520,-716,-3864,-4952,3578,4173,2025-01-27 14:11:24,0.0
-11760,-1384,-3008,-4132,3031,4921,2025-01-27 14:11:24,0.0
-11476,-1084,-1892,-2817,893,4945,2025-01-27 14:11:24,0.0
-13796,-112,-2376,-2195,-737,5513,2025-01-27 14:11:24,0.0
-14560,-52,-1296,-1969,-2453,7589,2025-01-27 14:11:24,0.0
-12324,-500,-2260,-1843,-4770,8421,2025-01-27 14:11:24,0.0
-10800,1484,-2204,-1230,-6474,7123,2025-01-27 14:11:24,0.0
-9648,3028,-3972,-829,-6278,5387,2025-01-27 14:11:24,0.0
-8168,4456,-3684,-595,-4516,3403,2025-01-27 14:11:24,0.0
-6932,5184,-2468,-296,-2493,947,2025-01-27 14:11:24,0.0
-9948,5096,-1032,677,-2079,295,2025-01-27 14:11:24,0.0
-12592,4324,712,1573,-1707,378,2025-01-27 14:11:24,0.0
-12696,3792,1232,2410,-2327,-85,2025-01-27 14:11:24,0.0
-13092,2536,972,2580,-2632,-1455,2025-01-27 14:11:24,0.0
-13272,1468,432,2893,-2877,-2470,2025-01-27 14:11:24,0.0
-11896,1532,-1112,3989,-1219,-3326,2025-01-27 14:11:24,0.0
-12596,1960,-4752,4808,2338,-3445,2025-01-27 14:11:24,0.0
-14452,2284,-9652,4004,4359,-2192,2025-01-27 14:11:24,0.0
-24608,5436,-10788,4267,4697,2201,2025-01-27 14:11:24,0.0
-30040,3320,-9556,4361,2450,9001,2025-01-27 14:11:24,0.0
-25240,684,-14448,764,-5897,9384,2025-01-27 14:11:24,0.0
-18172,5584,-8548,-891,-8618,4106,2025-01-27 14:11:24,0.0
-7856,6520,-4356,3073,-6921,-4024,2025-01-27 14:11:24,0.0
-7820,3860,-8100,3062,-1409,-7801,2025-01-27 14:11:24,0.0
-7196,1688,-8628,2042,2482,-7395,2025-01-27 14:11:24,0.0
-8008,216,-7204,2629,5774,-5693,2025-01-27 14:11:24,0.0
-10088,276,-6972,3183,8090,-4500,2025-01-27 14:11:24,0.0
-13484,1472,-8040,2492,10289,-4559,2025-01-27 14:11:24,0.0
-15068,1928,-7140,2349,9894,-5665,2025-01-27 14:11:24,0.0
-15932,1352,-6764,2142,6182,-7483,2025-01-27 14:11:24,0.0
-15964,852,-5248,1526,1533,-8665,2025-01-27 14:11:24,0.0
-14556,-856,-5676,920,-3037,-8768,2025-01-27 14:11:24,0.0
-11796,-892,-5676,1200,-5051,-7515,2025-01-27 14:11:24,0.0
-10736,-1356,-3856,2202,-4253,-5965,2025-01-27 14:11:24,0.0
-7960,-1464,-4568,2631,-2484,-4651,2025-01-27 14:11:24,0.0
-5944,-2016,-4664,2729,-952,-4625,2025-01-27 14:11:24,0.0
-5184,-2444,-4660,2485,-78,-5529,2025-01-27 14:11:24,0.0
-7116,-1580,-4584,2146,1126,-6337,2025-01-27 14:11:24,0.0
-8188,-952,-4232,2487,1618,-6455,2025-01-27 14:11:24,0.0
-8800,-864,-4100,2749,1229,-6475,2025-01-27 14:11:24,0.0
-9532,-920,-4736,2347,150,-6293,2025-01-27 14:11:24,0.0
-10204,-256,-4912,1690,-801,-5770,2025-01-27 14:11:24,
-10728,-472,-4848,998,-1340,-5368,2025-01-27 14:11:24,0.0
-11204,-1812,-4636,196,-1335,-4700,2025-01-27 14:11:24,0.0
-11056,-2488,-3316,168,-929,-4088,2025-01-27 14:11:24,0.0
-10832,-3916,-2236,659,-881,-4115,2025-01-27 14:11:24,0.0
-10124,-4312,-3680,644,-784,-3837,2025-01-27 14:11:24,0.0
-10372,-5192,-3868,828,-95,-3292,2025-01-27 14:11:24,0.0
-10588,-5244,-4136,1090,501,-2588,2025-01-27 14:11:25,0.0
-12128,-4984,-3064,906,838,-1676,2025-01-27 14:11:25,0.0
-12984,-4428,-2480,931,544,-618,2025-01-27 14:11:25,0.0
-13404,-4100,-1912,1100,-362,187,2025-01-27 14:11:25,0.0
-13272,-4260,-2576,1157,-1409,1031,2025-01-27 14:11:25,0.0
-13244,-4432,-2740,845,-2183,1658,2025-01-27 14:11:25,0.0
-12376,-4076,-3548,651,-2535,2046,2025-01-27 14:11:25,0.0
-12244,-3036,-3432,-136,-1768,1837,2025-01-27 14:11:25,0.0
-12740,-1532,-1920,-911,-762,1609,2025-01-27 14:11:25,0.0
-12568,-900,-3048,-1314,-229,1172,2025-01-27 14:11:25,0.0
-14720,-228,-3444,-2368,-246,209,2025-01-27 14:11:25,0.0
-15580,-260,-5532,-3389,-959,-268,2025-01-27 14:11:25,0.0
-15344,-1216,-8624,-4292,-1158,-675,2025-01-27 14:11:25,0.0
-15004,-4560,-11656,-5067,92,-1999,2025-01-27 14:11:25,0.0
-18584,-5952,-9148,-5006,2216,-5479,2025-01-27 14:11:25,0.0
-25980,-4112,-5428,-2659,1520,-4910,2025-01-27 14:11:25,0.0
-23308,-5904,-8160,-1719,-1348,2472,2025-01-27 14:11:25,0.0
-15420,-5668,-6964,-1503,-3997,5192,2025-01-27 14:11:25,0.0
-10960,-5128,-7280,-1592,-3231,4633,2025-01-27 14:11:25,0.0
-9656,-3272,-6332,-1682,-684,4159,2025-01-27 14:11:25,0.0
-9308,-2284,-6148,-1563,2118,3715,2025-01-27 14:11:25,0.0
-11896,-2364,-6364,-1995,4045,3273,2025-01-27 14:11:25,0.0
-15372,-2240,-7016,-2353,4526,3354,2025-01-27 14:11:25,0.0
-17676,-1604,-8236,-2426,4217,4539,2025-01-27 14:11:25,0.0
-16884,-316,-7668,-2590,2807,6113,2025-01-27 14:11:25,0.0
-15140,852,-6332,-2348,406,6968,2025-01-27 14:11:25,0.0
-12988,1292,-5704,-2400,-1387,7058,2025-01-27 14:11:25,0.0
-10876,1144,-6176,-2771,-1827,6566,2025-01-27 14:11:25,0.0
-9472,128,-5956,-3345,-798,5991,2025-01-27 14:11:25,0.0
-8532,-1176,-4484,-3108,928,5311,2025-01-27 14:11:25,0.0
-8492,-2300,-3948,-1990,2379,4995,2025-01-27 14:11:25,0.0
-8712,-2340,-3532,-1286,2921,5166,2025-01-27 14:11:25,0.0
-10204,-1712,-3224,-564,3122,5898,2025-01-27 14:11:25,0.0
-11424,-764,-3008,-37,2690,7238,2025-01-27 14:11:25,0.0
-10676,432,-3736,287,1139,8650,2025-01-27 14:11:25,0.0
-9744,1536,-4024,333,-748,9162,2025-01-27 14:11:25,0.0
-8320,2608,-3156,128,-2154,8378,2025-01-27 14:11:25,0.0
-7516,3184,-3052,-307,-2735,6760,2025-01-27 14:11:25,0.0
-7420,3248,-2740,-632,-3006,5196,2025-01-27 14:11:25,0.0
-8012,3088,-2996,-670,-3059,3973,2025-01-27 14:11:25,0.0
-8216,3132,-3476,-797,-2698,3516,2025-01-27 14:11:25,0.0
-8352,3108,-3160,-1129,-1315,3554,2025-01-27 14:11:25,0.0
-8824,2744,-2956,-803,-148,2994,2025-01-27 14:11:25,0.0
-9888,2324,-2228,-585,731,2258,2025-01-27 14:11:25,0.0
-10376,1892,-2756,-312,613,1506,2025-01-27 14:11:25,0.0
-11732,2200,-2120,0,-252,817,2025-01-27 14:11:25,0.0
-12368,2684,-1816,232,-1356,191,2025-01-27 14:11:25,0.0
-12720,3500,-1524,155,-2436,-340,2025-01-27 14:11:25,0.0
-12912,3684,-1376,67,-2854,-953,2025-01-27 14:11:25,0.0
-12860,3640,-976,59,-2820,-1981,2025-01-27 14:11:25,0.0
-12992,3424,-1452,50,-2555,-2704,2025-01-27 14:11:25,0.0
-14288,3328,-1252,276,-2262,-2435,2025-01-27 14:11:25,0.0
-14212,2708,-2576,173,-2533,-1941,2025-01-27 14:11:25,0.0
-14880,2476,-3872,419,-2552,-1599,2025-01-27 14:11:25,0.0
-18012,2388,-4844,1510,-1628,-425,2025-01-27 14:11:25,0.0
-22276,1480,-6676,1449,-874,2802,2025-01-27 14:11:25,0.0
-23588,296,-6400,1158,-2593,5563,2025-01-27 14:11:25,0.0
-19156,1376,-6384,1656,-6631,5933,2025-01-27 14:11:25,0.0
-14332,4812,-7104,2341,-6954,3286,2025-01-27 14:11:25,0.0
-10556,7272,-8988,2707,-2989,-645,2025-01-27 14:11:25,0.0
-9848,7184,-9156,3219,1822,-4524,2025-01-27 14:11:26,0.0
-11980,5528,-8080,2929,3769,-6041,2025-01-27 14:11:26,0.0
-13356,4220,-6784,2379,4161,-6071,2025-01-27 14:11:26,0.0
-13460,2628,-5640,1643,4121,-6016,2025-01-27 14:11:26,0.0
-12932,1700,-5532,654,4470,-6010,2025-01-27 14:11:26,0.0
-12304,1228,-6508,-554,5798,-6224,2025-01-27 14:11:26,0.0
-11472,1276,-7296,-1307,7526,-6999,2025-01-27 14:11:26,0.0
-11712,1284,-6172,-445,7723,-8643,2025-01-27 14:11:26,0.0
-13524,704,-5760,-156,5997,-9521,2025-01-27 14:11:26,0.0
-14256,-504,-5368,-597,4051,-9580,2025-01-27 14:11:26,0.0
-14464,-1432,-4124,-694,1683,-9135,2025-01-27 14:11:26,0.0
-13288,-2832,-3828,247,-1027,-8634,2025-01-27 14:11:26,0.0
-11716,-4184,-3892,1393,-2934,-7056,2025-01-27 14:11:26,0.0
-9732,-4784,-3540,2591,-3571,-5762,2025-01-27 14:11:26,0.0
-7924,-4168,-3508,3343,-3135,-4982,2025-01-27 14:11:26,0.0
-6140,-3184,-3260,3809,-1556,-4937,2025-01-27 14:11:26,0.0
-6340,-2400,-3276,4111,-348,-5390,2025-01-27 14:11:26,0.0
-7344,-1820,-3288,4116,246,-5522,2025-01-27 14:11:26,0.0
-8952,-780,-3180,3786,332,-5505,2025-01-27 14:11:26,0.0
-10176,-324,-3220,3113,-216,-5760,2025-01-27 14:11:26,0.0
-11712,-588,-3332,2256,-1014,-5122,2025-01-27 14:11:26,0.0
-11764,-608,-3140,1659,-1767,-4158,2025-01-27 14:11:26,0.0
-11344,-992,-3800,1291,-2378,-3449,2025-01-27 14:11:26,0.0
-10848,-1676,-3660,689,-2667,-3033,2025-01-27 14:11:26,0.0
-9988,-2336,-3792,130,-1731,-3028,2025-01-27 14:11:26,0.0
-10012,-3064,-3104,-326,-301,-3521,2025-01-27 14:11:26,0.0
-10912,-4484,-2472,-453,793,-3637,2025-01-27 14:11:26,0.0
-11956,-5108,-1788,-40,1051,-3094,2025-01-27 14:11:26,0.0
-13676,-5720,-1792,74,292,-2238,2025-01-27 14:11:26,0.0
-14736,-4604,-1200,154,-502,-1001,2025-01-27 14:11:26,0.0
-14060,-3800,-1376,367,-1034,-330,2025-01-27 14:11:26,0.0
-13132,-3600,-2364,233,-1500,210,2025-01-27 14:11:26,0.0
-12696,-3848,-2756,-468,-625,447,2025-01-27 14:11:26,0.0
-12564,-4292,-2412,-1154,488,261,2025-01-27 14:11:26,
-14436,-4204,-1464,-1381,798,292,2025-01-27 14:11:26,0.0
-15988,-3592,-2828,-1681,57,854,2025-01-27 14:11:26,0.0
-16116,-3352,-5312,-1657,-641,1537,2025-01-27 14:11:26,0.0
-14736,-4260,-10544,-2433,-256,747,2025-01-27 14:11:26,0.0
-15708,-5268,-9424,-3232,2424,-2416,2025-01-27 14:11:26,0.0
-18092,-4740,-8024,-2547,3383,-6192,2025-01-27 14:11:26,0.0
-23736,-3080,-8048,-2250,649,-5865,2025-01-27 14:11:26,0.0
-26660,-2336,-10316,-3510,-2671,-300,2025-01-27 14:11:26,0.0
-18856,-3324,-9516,-3727,-3648,5056,2025-01-27 14:11:26,0.0
-12372,-3684,-10196,-3384,-2620,5302,2025-01-27 14:11:26,0.0
-9624,-2448,-8852,-4379,755,4048,2025-01-27 14:11:26,0.0
-9228,-1268,-5772,-4438,4129,2901,2025-01-27 14:11:26,0.0
-10388,-1460,-5128,-3635,5287,2473,2025-01-27 14:11:26,0.0
-12460,-2388,-6092,-3008,5841,2675,2025-01-27 14:11:26,0.0
-14548,-3068,-7248,-2651,6696,3339,2025-01-27 14:11:26,0.0
-16536,-3216,-7008,-2690,7129,4673,2025-01-27 14:11:26,0.0
-16524,-2916,-6052,-2549,5427,6283,2025-01-27 14:11:26,0.0
-15012,-1892,-4216,-1772,2162,7397,2025-01-27 14:11:26,0.0
-12856,-704,-3888,-898,-1228,7881,2025-01-27 14:11:26,0.0
-11352,1012,-3872,-559,-2177,8240,2025-01-27 14:11:26,0.0
-9188,1956,-4204,-972,-916,8357,2025-01-27 14:11:26,0.0
-7100,1780,-4096,-1476,465,7693,2025-01-27 14:11:26,0.0
-5940,1112,-4068,-1757,985,6199,2025-01-27 14:11:26,0.0
-6172,628,-4084,-1881,1386,5285,2025-01-27 14:11:26,0.0
-7340,648,-3476,-1919,2091,5117,2025-01-27 14:11:26,0.0
-9020,716,-3956,-1926,2663,5920,2025-01-27 14:11:26,0.0
-10308,1316,-4000,-2282,2685,7545,2025-01-27 14:11:26,0.0
-10392,1604,-3804,-2410,1874,8290,2025-01-27 14:11:26,0.0
-9752,1788,-3008,-2228,-351,7427,2025-01-27 14:11:26,0.0
-9416,2316,-2868,-1778,-2883,5869,2025-01-27 14:11:26,0.0
-10220,2324,-3096,-1680,-4076,4679,2025-01-27 14:11:26,0.0
-10024,2060,-2552,-1429,-4266,4107,2025-01-27 14:11:27,0.0
-9596,2028,-2180,-723,-3923,3511,2025-01-27 14:11:27,0.0
-9140,2304,-3392,56,-3253,2191,2025-01-27 14:11:27,0.0
-9512,2836,-4624,-300,-763,1652,2025-01-27 14:11:27,0.0
-10172,3220,-3056,54,89,1555,2025-01-27 14:11:27,0.0
-11528,3596,-2728,566,-73,1417,2025-01-27 14:11:27,0.0
-12708,3280,-2128,696,-811,1031,2025-01-27 14:11:27,0.0
-13680,3664,-948,675,-2579,70,2025-01-27 14:11:27,0.0
-13864,4024,-556,785,-4084,-804,2025-01-27 14:11:27,0.0
-13540,3720,-136,1104,-4443,-1201,2025-01-27 14:11:27,0.0
-13200,3148,-152,1850,-3596,-1216,2025-01-27 14:11:27,0.0
-13284,2308,-1444,2340,-2038,-1003,2025-01-27 14:11:27,0.0
-14652,1264,-3288,2905,-538,-723,2025-01-27 14:11:27,0.0
-17424,628,-5120,4058,132,-12,2025-01-27 14:11:27,0.0
-21904,2128,-5844,4963,-301,2220,2025-01-27 14:11:27,0.0
-21984,3608,-8416,4094,-875,4394,2025-01-27 14:11:27,0.0
-19668,6900,-8928,1228,-2092,5178,2025-01-27 14:11:27,0.0
-17092,9188,-6768,718,-1829,3793,2025-01-27 14:11:27,0.0
-13152,8360,-6676,1392,-1459,652,2025-01-27 14:11:27,0.0
-10748,4460,-8084,1149,-1244,-3033,2025-01-27 14:11:27,0.0
-10624,2340,-7888,1138,513,-5020,2025-01-27 14:11:27,0.0
-10152,372,-7780,1354,3103,-5635,2025-01-27 14:11:27,0.0
-9840,-1220,-7696,1539,5051,-5918,2025-01-27 14:11:27,0.0
-10832,-1608,-8360,2110,5773,-6269,2025-01-27 14:11:27,0.0
-12492,-1336,-9744,2405,6593,-6779,2025-01-27 14:11:27,0.0
-13168,216,-9172,2346,6737,-6903,2025-01-27 14:11:27,0.0
-14636,1048,-7224,2086,5448,-7179,2025-01-27 14:11:27,0.0
-14556,1384,-5460,1412,2414,-7771,2025-01-27 14:11:27,0.0
-14944,1668,-4456,1010,-1257,-8204,2025-01-27 14:11:27,0.0
-13856,1040,-4800,759,-4990,-8115,2025-01-27 14:11:27,0.0
-12744,-448,-4924,410,-6719,-6926,2025-01-27 14:11:27,0.0
-10304,-1676,-3656,513,-6289,-5509,2025-01-27 14:11:27,0.0
-7548,-3288,-2264,1258,-4201,-4805,2025-01-27 14:11:27,0.0
-5944,-4180,-1868,2270,-1439,-4503,2025-01-27 14:11:27,0.0
-5160,-3728,-2968,3114,5,-4642,2025-01-27 14:11:27,0.0
-5840,-2864,-3400,3768,845,-5237,2025-01-27 14:11:27,0.0
-7340,-1624,-3424,4076,1381,-5561,2025-01-27 14:11:27,0.0
-9088,-420,-3888,3895,1801,-5646,2025-01-27 14:11:27,0.0
-11152,552,-4040,3045,1032,-5248,2025-01-27 14:11:27,0.0
-11768,576,-3772,1929,-660,-4835,2025-01-27 14:11:27,0.0
-11112,64,-3412,1318,-2605,-4969,2025-01-27 14:11:27,0.0
-10360,-1496,-3636,869,-4294,-5333,2025-01-27 14:11:27,0.0
-10404,-2476,-2488,493,-3481,-5085,2025-01-27 14:11:27,0.0
-9428,-3076,-2452,505,-1958,-5116,2025-01-27 14:11:27,0.0
-9768,-3920,-2752,220,-232,-4875,2025-01-27 14:11:27,0.0
-10816,-3856,-2684,202,866,-4546,2025-01-27 14:11:27,0.0
-12336,-4568,-2824,-226,820,-4143,2025-01-27 14:11:27,0.0
-13704,-4656,-2892,-684,1115,-3872,2025-01-27 14:11:27,0.0
-14468,-4680,-1916,-706,1028,-4033,2025-01-27 14:11:27,0.0
-15428,-4408,-1188,-732,786,-3567,2025-01-27 14:11:27,0.0
-15504,-3548,-1860,-976,886,-2603,2025-01-27 14:11:27,0.0
-14284,-2560,-2536,-1447,1565,-1829,2025-01-27 14:11:27,0.0
-13528,-2320,-3268,-2595,2325,-2036,2025-01-27 14:11:27,0.0
-14532,-2176,-4024,-4052,2354,-2322,2025-01-27 14:11:27,0.0
-15956,-2444,-4472,-5484,900,-1543,2025-01-27 14:11:27,0.0
-14888,-4120,-6768,-6162,-626,-536,2025-01-27 14:11:27,0.0
-12772,-7068,-10364,-5871,-214,-987,2025-01-27 14:11:27,0.0
-15960,-10632,-10928,-5074,4228,-4674,2025-01-27 14:11:27,0.0
-22128,-8388,-6388,-4280,5292,-7417,2025-01-27 14:11:27,0.0
-27468,-4972,-5236,-2373,-149,-4295,2025-01-27 14:11:27,0.0
-24264,-3532,-8712,-1873,-5484,2705,2025-01-27 14:11:27,0.0
-15576,-3040,-11744,-2609,-7410,6556,2025-01-27 14:11:28,0.0
-10180,-1144,-11216,-4338,-5263,7230,2025-01-27 14:11:28,0.0
-7928,88,-8128,-5385,-349,6285,2025-01-27 14:11:28,0.0
-7876,-144,-6504,-6328,5347,4016,2025-01-27 14:11:28,0.0
-10820,-1808,-5728,-6417,7718,2802,2025-01-27 14:11:28,0.0
-14620,-3204,-5448,-5172,8484,3193,2025-01-27 14:11:28,0.0
-16856,-4308,-5648,-3931,8579,4541,2025-01-27 14:11:28,0.0
-16996,-4396,-4596,-2936,6650,6043,2025-01-27 14:11:28,
-15292,-4304,-3148,-1763,2780,7213,2025-01-27 14:11:28,0.0
-13860,-3540,-2648,-46,-1286,8336,2025-01-27 14:11:28,0.0
-11948,-2644,-4080,954,-3216,9536,2025-01-27 14:11:28,0.0
-10080,-1688,-4856,1230,-3954,10865,2025-01-27 14:11:28,0.0
-7252,116,-4648,1611,-3717,11548,2025-01-27 14:11:28,0.0
-5616,1976,-4800,1356,-2455,10755,2025-01-27 14:11:28,0.0
-5232,3520,-5096,446,-806,9315,2025-01-27 14:11:28,0.0
-6332,4500,-4956,-1113,820,8148,2025-01-27 14:11:28,0.0
-7644,4348,-4660,-2385,1441,7656,2025-01-27 14:11:28,0.0
-8084,3240,-4496,-3093,430,7158,2025-01-27 14:11:28,0.0
-8988,1848,-4460,-3684,-783,6293,2025-01-27 14:11:28,0.0
-9420,1220,-3684,-3816,-1398,5984,2025-01-27 14:11:28,0.0
-10360,1296,-2416,-3450,-1844,5934,2025-01-27 14:11:28,0.0
-9960,1972,-2132,-2910,-2362,6152,2025-01-27 14:11:28,0.0
-9712,2128,-2148,-2292,-2171,5669,2025-01-27 14:11:28,0.0
-9868,2608,-2912,-1706,-1767,4338,2025-01-27 14:11:28,0.0
-9660,2832,-3464,-1340,-2068,3104,2025-01-27 14:11:28,0.0
-10772,2848,-2760,-1053,-1839,2057,2025-01-27 14:11:28,0.0
-11076,2616,-1976,-373,-2355,1160,2025-01-27 14:11:28,0.0
-11252,2400,-1452,158,-2795,113,2025-01-27 14:11:28,0.0
-11492,2648,-1712,654,-2591,-718,2025-01-27 14:11:28,0.0
-11640,3388,-1588,909,-2304,-1060,2025-01-27 14:11:28,0.0
-12232,4488,-1088,855,-1388,-778,2025-01-27 14:11:28,0.0
-12564,5300,-708,915,-730,-483,2025-01-27 14:11:28,0.0
-12052,5932,-1176,662,-497,-755,2025-01-27 14:11:28,0.0
-12764,5864,-1280,430,-13,-1609,2025-01-27 14:11:28,0.0
-14800,5140,-880,455,269,-1896,2025-01-27 14:11:28,0.0
-16772,3692,-1472,981,67,-1497,2025-01-27 14:11:28,0.0
-17524,2456,-3692,1658,-1076,-774,2025-01-27 14:11:28,0.0
-18188,2252,-6176,3245,-2953,98,2025-01-27 14:11:28,0.0
-19484,3100,-8580,4080,-3435,1712,2025-01-27 14:11:28,0.0
-19528,4448,-8740,3006,-1998,2691,2025-01-27 14:11:28,0.0
-16956,5300,-7080,1679,-96,1614,2025-01-27 14:11:28,0.0
-12768,6000,-7196,1374,60,-1725,2025-01-27 14:11:28,0.0
-10824,5216,-8056,1502,-169,-5621,2025-01-27 14:11:28,0.0
-10924,3836,-8812,1709,973,-7196,2025-01-27 14:11:28,0.0
-10648,1940,-9464,2428,3648,-7441,2025-01-27 14:11:28,0.0
-10680,-172,-10148,2876,6782,-7455,2025-01-27 14:11:28,0.0
-11512,-1616,-8876,2929,8840,-7559,2025-01-27 14:11:28,0.0
-13548,-2068,-7420,3562,9524,-6987,2025-01-27 14:11:28,0.0
-15248,-1324,-8256,3797,9629,-6160,2025-01-27 14:11:28,0.0
-16048,1020,-7676,3195,7638,-5825,2025-01-27 14:11:28,0.0
-16072,1684,-6880,2861,3643,-6171,2025-01-27 14:11:28,0.0
-14972,1360,-5752,2198,-1082,-6833,2025-01-27 14:11:28,0.0
-12884,-12,-4952,1621,-4417,-7290,2025-01-27 14:11:28,0.0
-11284,-1404,-3976,1743,-5503,-7119,2025-01-27 14:11:28,0.0
-8720,-2376,-3108,2535,-5229,-5980,2025-01-27 14:11:28,0.0
-6272,-2812,-4036,2604,-3743,-5228,2025-01-27 14:11:28,0.0
-5156,-2388,-3900,2114,-1533,-5354,2025-01-27 14:11:28,0.0
-5240,-2200,-4116,1632,187,-6006,2025-01-27 14:11:28,0.0
-6148,-2024,-3732,1570,1549,-6573,2025-01-27 14:11:28,0.0
-6968,-1892,-3908,1977,1753,-7122,2025-01-27 14:11:28,0.0
-8340,-1864,-3308,2425,1238,-8384,2025-01-27 14:11:28,0.0
-10220,-2352,-2988,2339,418,-9507,2025-01-27 14:11:29,0.0
-12360,-2440,-1824,2414,-286,-8869,2025-01-27 14:11:29,0.0
-13380,-4096,-2268,2305,-1412,-7290,2025-01-27 14:11:29,0.0
-12416,-4168,-2296,2524,-2160,-5513,2025-01-27 14:11:29,0.0
-11284,-4876,-3108,2811,-3097,-4559,2025-01-27 14:11:29,0.0
-11624,-4344,-2836,2696,-2850,-3658,2025-01-27 14:11:29,0.0
-11612,-3956,-2796,2219,-1416,-2888,2025-01-27 14:11:29,0.0
-10888,-3980,-2900,1820,-274,-2528,2025-01-27 14:11:29,0.0
-11640,-4532,-3132,1577,-49,-1806,2025-01-27 14:11:29,0.0
-12816,-4760,-1988,1511,523,-950,2025-01-27 14:11:29,0.0
-13236,-4352,-2624,1481,1119,-783,2025-01-27 14:11:29,0.0
-13696,-4240,-2492,1032,429,-1084,2025-01-27 14:11:29,0.0
-14020,-4356,-2224,565,-545,-976,2025-01-27 14:11:29,0.0
-13588,-4232,-2492,292,-319,-113,2025-01-27 14:11:29,0.0
-12800,-4124,-3476,-374,-39,353,2025-01-27 14:11:29,0.0
-12748,-3920,-3220,-1662,617,291,2025-01-27 14:11:29,0.0
-14252,-3296,-3708,-2701,732,298,2025-01-27 14:11:29,0.0
-15544,-2824,-5408,-3634,-501,896,2025-01-27 14:11:29,0.0
-16128,-3236,-7020,-5202,-1355,-346,2025-01-27 14:11:29,0.0
-17484,-3748,-7980,-5925,-779,-2242,2025-01-27 14:11:29,0.0
-18356,-6472,-8848,-5703,-509,-2110,2025-01-27 14:11:29,0.0
-19940,-7332,-6564,-5547,948,-1331,2025-01-27 14:11:29,0.0
-20916,-5840,-6056,-4117,1060,715,2025-01-27 14:11:29,0.0
-18352,-4184,-9580,-2840,122,2589,2025-01-27 14:11:29,0.0
-13932,-5108,-11540,-3158,-353,2437,2025-01-27 14:11:29,0.0
-12772,-5360,-9656,-3327,1616,1539,2025-01-27 14:11:29,0.0
-12592,-4864,-8108,-3236,3146,1850,2025-01-27 14:11:29,0.0
-11796,-3280,-7008,-2718,3914,2463,2025-01-27 14:11:29,0.0
-10852,-2228,-7496,-2756,4235,2764,2025-01-27 14:11:29,0.0
-11268,-1516,-8208,-3112,5357,3114,2025-01-27 14:11:29,0.0
-11936,-1812,-8452,-3476,6392,3762,2025-01-27 14:11:29,0.0
-12376,-2504,-7628,-3684,7198,4365,2025-01-27 14:11:29,0.0
-12740,-3016,-5580,-3069,6768,5268,2025-01-27 14:11:29,0.0
-12872,-2392,-4024,-1952,4884,6091,2025-01-27 14:11:29,0.0
-12480,-1548,-4124,-1401,1512,6986,2025-01-27 14:11:29,0.0
-11256,-412,-4148,-1283,-2426,8063,2025-01-27 14:11:29,0.0
-9388,572,-4480,-1129,-4267,8694,2025-01-27 14:11:29,0.0
-7060,1372,-5124,-1391,-4201,8394,2025-01-27 14:11:29,0.0
-5424,1876,-6028,-2227,-3172,7312,2025-01-27 14:11:29,0.0
-4692,2228,-6232,-2934,-1757,6282,2025-01-27 14:11:29,0.0
-4332,2472,-5724,-3309,-512,5092,2025-01-27 14:11:29,0.0
-5228,2464,-5040,-3060,1158,3890,2025-01-27 14:11:29,0.0
-6896,2084,-5124,-3132,3225,3165,2025-01-27 14:11:29,0.0
-8760,1092,-5356,-3623,4932,2924,2025-01-27 14:11:29,0.0
-9912,248,-4932,-3718,4996,2740,2025-01-27 14:11:29,0.0
-10292,-728,-4456,-3134,2709,1910,2025-01-27 14:11:29,0.0
-10108,-884,-4352,-1593,-360,719,2025-01-27 14:11:29,
