acceleration_x,acceleration_y,acceleration_z,gyroscope_x,gyroscope_y,gyroscope_z,timestamp,label
-11904,-556,-5940,-193,208,-187,2025-01-27 14:11:42,0.0
-11984,-584,-5992,-184,247,-219,2025-01-27 14:11:42,0.0
-12068,-580,-6152,-194,213,-206,2025-01-27 14:11:42,0.0
-12112,-628,-6192,-168,213,-199,2025-01-27 14:11:42,0.0
-12068,-600,-6192,-197,173,-185,2025-01-27 14:11:42,0.0
-11964,-592,-6244,-198,149,-184,2025-01-27 14:11:42,0.0
-12076,-548,-6072,-194,166,-159,2025-01-27 14:11:42,0.0
-12032,-576,-6092,-206,235,-177,2025-01-27 14:11:42,0.0
-12140,-488,-6060,-169,193,-163,2025-01-27 14:11:42,0.0
-12068,-588,-6072,-95,117,-166,2025-01-27 14:11:42,0.0
-11988,-624,-5984,-94,134,-144,2025-01-27 14:11:42,0.0
-11932,-616,-5988,-81,186,-118,2025-01-27 14:11:42,0.0
-12028,-548,-6004,-42,194,-136,2025-01-27 14:11:42,0.0
-11972,-464,-6040,-49,197,-110,2025-01-27 14:11:42,0.0
-12060,-488,-5984,-55,188,-111,2025-01-27 14:11:42,0.0
-11972,-568,-5884,-33,165,-125,2025-01-27 14:11:42,0.0
-11932,-532,-6156,-20,231,-99,2025-01-27 14:11:42,0.0
-12020,-524,-6092,-35,268,-120,2025-01-27 14:11:42,0.0
-12024,-636,-5984,-96,303,-153,2025-01-27 14:11:42,0.0
-12188,-448,-6020,-107,297,-168,2025-01-27 14:11:42,0.0
-12032,-536,-6136,-146,158,-152,2025-01-27 14:11:42,0.0
-12088,-480,-6228,-165,39,-155,2025-01-27 14:11:42,0.0
-12048,-420,-6276,-164,64,-185,2025-01-27 14:11:42,0.0
-12008,-536,-6040,-192,138,-179,2025-01-27 14:11:42,0.0
-12008,-512,-6200,-183,119,-194,2025-01-27 14:11:42,0.0
-12048,-488,-6084,-200,58,-215,2025-01-27 14:11:42,0.0
-12048,-564,-6112,-209,53,-180,2025-01-27 14:11:42,0.0
-11928,-480,-6116,-222,56,-180,2025-01-27 14:11:42,0.0
-11784,-612,-6104,-253,122,-189,2025-01-27 14:11:42,0.0
-11716,-664,-6044,-178,153,-200,2025-01-27 14:11:42,0.0
-11976,-600,-6072,-196,224,-171,2025-01-27 14:11:42,0.0
-11948,-632,-5840,-177,247,-149,2025-01-27 14:11:42,0.0
-11904,-704,-6004,-130,341,-161,2025-01-27 14:11:42,0.0
-12024,-656,-5952,-118,341,-152,2025-01-27 14:11:42,0.0
-12036,-644,-6148,-84,337,-136,2025-01-27 14:11:42,0.0
-11928,-636,-6124,-58,305,-138,2025-01-27 14:11:42,0.0
-12100,-624,-6120,-88,243,-140,2025-01-27 14:11:42,0.0
-12092,-484,-6040,-97,206,-157,2025-01-27 14:11:42,0.0
-12032,-508,-5892,-91,206,-158,2025-01-27 14:11:42,0.0
-12100,-612,-6124,-67,129,-167,2025-01-27 14:11:42,0.0
-11956,-596,-6180,-57,175,-142,2025-01-27 14:11:42,0.0
-12088,-652,-5968,-34,261,-110,2025-01-27 14:11:42,0.0
-12060,-508,-6092,-28,232,-125,2025-01-27 14:11:42,0.0
-12136,-608,-6012,-52,130,-110,2025-01-27 14:11:43,0.0
-12000,-472,-5872,-48,33,-124,2025-01-27 14:11:43,0.0
-11896,-512,-5992,-29,14,-144,2025-01-27 14:11:43,0.0
-11892,-596,-6092,-33,171,-131,2025-01-27 14:11:43,0.0
-11844,-532,-6104,-10,269,-141,2025-01-27 14:11:43,0.0
-12004,-560,-6060,-95,300,-145,2025-01-27 14:11:43,0.0
-12020,-612,-6156,-93,280,-136,2025-01-27 14:11:43,0.0
-12152,-596,-6232,-64,157,-129,2025-01-27 14:11:43,0.0
-11908,-584,-6192,-113,99,-115,2025-01-27 14:11:43,0.0
-11912,-604,-6168,-98,150,-136,2025-01-27 14:11:43,0.0
-11856,-628,-6136,-116,209,-133,2025-01-27 14:11:43,0.0
-11852,-580,-6008,-104,249,-138,2025-01-27 14:11:43,0.0
-11972,-600,-6204,-69,240,-128,2025-01-27 14:11:43,0.0
-11920,-596,-6028,-40,299,-114,2025-01-27 14:11:43,0.0
-12024,-604,-6148,-21,326,-105,2025-01-27 14:11:43,0.0
-11996,-592,-6048,-54,351,-86,2025-01-27 14:11:43,0.0
-12076,-440,-6000,-27,272,-59,2025-01-27 14:11:43,0.0
-12024,-404,-6148,-47,217,8,2025-01-27 14:11:43,0.0
-12004,-436,-6308,-106,270,24,2025-01-27 14:11:43,0.0
-11992,-444,-6208,-105,213,67,2025-01-27 14:11:43,0.0
-12156,-444,-6040,-81,167,126,2025-01-27 14:11:43,0.0
-12084,-400,-6032,-88,115,119,2025-01-27 14:11:43,0.0
-12184,-340,-6200,-78,68,128,2025-01-27 14:11:43,0.0
-11972,-364,-5856,-6,19,141,2025-01-27 14:11:43,0.0
-11920,-468,-6184,56,-35,160,2025-01-27 14:11:43,0.0
-11912,-412,-6092,87,12,237,2025-01-27 14:11:43,0.0
-11948,-300,-6316,65,67,303,2025-01-27 14:11:43,0.0
-12276,-148,-6636,-11,51,450,2025-01-27 14:11:43,0.0
-12568,172,-6544,-148,41,555,2025-01-27 14:11:43,0.0
-12240,516,-6652,-300,-278,717,2025-01-27 14:11:43,0.0
-11976,492,-6592,-501,-637,647,2025-01-27 14:11:43,0.0
-11756,428,-6464,-703,-506,659,2025-01-27 14:11:43,0.0
-11824,284,-6324,-705,-347,557,2025-01-27 14:11:43,0.0
-11892,192,-6532,-721,-436,387,2025-01-27 14:11:43,0.0
-12000,416,-6292,-661,-638,348,2025-01-27 14:11:43,0.0
-11988,752,-6392,-697,-1013,175,2025-01-27 14:11:43,0.0
-12000,676,-6100,-810,-1147,-9,2025-01-27 14:11:43,0.0
-11892,488,-5600,-723,-1200,-168,2025-01-27 14:11:43,0.0
-11592,276,-5148,-615,-1288,-379,2025-01-27 14:11:43,0.0
-11436,412,-4720,-416,-1280,-636,2025-01-27 14:11:43,0.0
-11652,428,-4612,-237,-972,-754,2025-01-27 14:11:43,0.0
-11948,292,-4616,-73,-240,-679,2025-01-27 14:11:43,0.0
-12252,200,-4680,37,167,-665,2025-01-27 14:11:43,0.0
-12400,296,-4804,77,306,-635,2025-01-27 14:11:43,0.0
-12660,372,-5088,8,336,-542,2025-01-27 14:11:43,0.0
-12756,436,-4824,38,60,-593,2025-01-27 14:11:43,0.0
-12332,532,-5344,29,-138,-715,2025-01-27 14:11:43,0.0
-11864,628,-5812,-116,-111,-909,2025-01-27 14:11:43,0.0
-11720,656,-6412,-322,15,-1011,2025-01-27 14:11:43,0.0
-11636,596,-6180,-561,301,-1229,2025-01-27 14:11:43,0.0
-12116,364,-6228,-806,409,-1363,2025-01-27 14:11:43,0.0
-12316,200,-5984,-950,319,-1578,2025-01-27 14:11:43,0.0
-12504,-136,-6192,-990,-158,-1884,2025-01-27 14:11:43,0.0
-12812,-804,-5464,-819,-262,-2130,2025-01-27 14:11:43,0.0
-12332,-980,-5188,-210,-316,-2193,2025-01-27 14:11:43,0.0
-12044,-968,-5936,185,-633,-2281,2025-01-27 14:11:43,0.0
-11624,-1232,-5968,516,-554,-2164,2025-01-27 14:11:43,
-11136,-1740,-5900,1058,140,-1743,2025-01-27 14:11:43,0.0
-11032,-2144,-5652,1397,957,-1178,2025-01-27 14:11:43,0.0
-11180,-2808,-5496,1652,1738,-712,2025-01-27 14:11:43,0.0
-11520,-2940,-5568,1867,2558,-582,2025-01-27 14:11:43,0.0
-12212,-2516,-5604,1975,3282,-807,2025-01-27 14:11:44,0.0
-12944,-1868,-5536,2250,3673,-1214,2025-01-27 14:11:44,0.0
-13376,-1332,-5192,2413,3554,-1787,2025-01-27 14:11:44,0.0
-13984,-964,-4496,2313,2676,-2355,2025-01-27 14:11:44,0.0
-13912,-780,-4684,1981,1107,-2655,2025-01-27 14:11:44,0.0
-13368,-1176,-5068,1642,127,-2781,2025-01-27 14:11:44,0.0
-12560,-1400,-5228,1466,-65,-2948,2025-01-27 14:11:44,0.0
-12124,-1956,-5092,1276,59,-3241,2025-01-27 14:11:44,0.0
-12204,-2156,-4736,1029,87,-3252,2025-01-27 14:11:44,0.0
-12240,-2176,-4488,908,55,-2940,2025-01-27 14:11:44,0.0
-12116,-2296,-4316,825,-116,-2662,2025-01-27 14:11:44,0.0
-11736,-2748,-4596,823,-335,-2415,2025-01-27 14:11:44,0.0
-12224,-2612,-4448,725,-354,-1879,2025-01-27 14:11:44,0.0
-12452,-2388,-4292,583,-283,-1277,2025-01-27 14:11:44,0.0
-12540,-2144,-3972,337,-500,-660,2025-01-27 14:11:44,0.0
-12428,-2216,-4220,58,-1064,-148,2025-01-27 14:11:44,0.0
-12420,-2220,-3852,-272,-1615,349,2025-01-27 14:11:44,0.0
-12008,-2208,-4040,-527,-1932,741,2025-01-27 14:11:44,0.0
-11800,-2000,-3896,-852,-2174,941,2025-01-27 14:11:44,0.0
-11496,-2008,-3792,-994,-2394,1040,2025-01-27 14:11:44,0.0
-11320,-2156,-3944,-1271,-2476,1075,2025-01-27 14:11:44,0.0
-11412,-2492,-3816,-1376,-2225,884,2025-01-27 14:11:44,0.0
-11668,-2428,-3760,-1409,-2133,811,2025-01-27 14:11:44,0.0
-11428,-2516,-3820,-1629,-2417,626,2025-01-27 14:11:44,0.0
-10764,-2396,-4192,-1653,-2778,542,2025-01-27 14:11:44,0.0
-9384,-2220,-4052,-1712,-2628,454,2025-01-27 14:11:44,0.0
-8624,-1596,-3860,-2122,-2371,133,2025-01-27 14:11:44,0.0
-8864,-816,-2484,-2571,-1369,21,2025-01-27 14:11:44,0.0
-9644,-916,-1788,-3075,-254,199,2025-01-27 14:11:44,0.0
-10892,-1372,-2364,-3609,-85,581,2025-01-27 14:11:44,0.0
-11268,-1872,-3456,-4050,-388,980,2025-01-27 14:11:44,0.0
-11408,-2208,-4084,-4398,-890,1111,2025-01-27 14:11:44,0.0
-11356,-3264,-3304,-4315,-1331,1141,2025-01-27 14:11:44,0.0
-11248,-3640,-2112,-3731,-1404,885,2025-01-27 14:11:44,0.0
-12104,-3272,-2128,-3410,-822,703,2025-01-27 14:11:44,0.0
-12752,-2968,-3000,-3510,212,1039,2025-01-27 14:11:44,0.0
-11492,-3008,-4256,-3169,99,1361,2025-01-27 14:11:44,0.0
-11232,-2660,-3400,-2466,495,1326,2025-01-27 14:11:44,0.0
-10560,-3064,-3272,-2211,1837,1090,2025-01-27 14:11:44,0.0
-10868,-3432,-2472,-1768,3414,706,2025-01-27 14:11:44,0.0
-12652,-3468,-2512,-1380,4890,350,2025-01-27 14:11:44,0.0
-14516,-3008,-4016,-1788,5715,609,2025-01-27 14:11:44,0.0
-15824,-2348,-4248,-2311,5247,1062,2025-01-27 14:11:44,0.0
-16488,-1628,-3912,-2752,3943,1700,2025-01-27 14:11:44,0.0
-15492,-1816,-4200,-3028,2307,1782,2025-01-27 14:11:44,0.0
-14112,-2496,-7704,-3145,758,385,2025-01-27 14:11:44,0.0
-14148,-2492,-10576,-2582,-280,-1489,2025-01-27 14:11:44,0.0
-15384,-2720,-9700,-413,-272,-2699,2025-01-27 14:11:44,0.0
-17580,-1604,-8692,1024,-1168,-1691,2025-01-27 14:11:44,0.0
-16524,-456,-7344,432,-3445,618,2025-01-27 14:11:44,0.0
-14660,364,-7572,-455,-5514,2248,2025-01-27 14:11:44,0.0
-11632,272,-10608,-754,-5385,2927,2025-01-27 14:11:44,0.0
-10380,1292,-12444,-223,-2121,1649,2025-01-27 14:11:44,0.0
-11816,1564,-10772,147,4084,-1066,2025-01-27 14:11:44,0.0
-15236,660,-6712,42,6024,-1782,2025-01-27 14:11:44,0.0
-18280,316,-4272,496,4559,-195,2025-01-27 14:11:44,0.0
-19760,136,-4720,549,832,2877,2025-01-27 14:11:44,0.0
-17624,56,-5956,339,-1370,4230,2025-01-27 14:11:44,0.0
-15544,304,-7384,314,-2074,4064,2025-01-27 14:11:44,0.0
-14416,1376,-8176,609,-1653,3787,2025-01-27 14:11:44,0.0
-13460,2852,-8276,352,-1598,3759,2025-01-27 14:11:44,0.0
-12200,3472,-6608,-543,-1922,3934,2025-01-27 14:11:45,0.0
-10900,2908,-5596,-1493,-2254,3829,2025-01-27 14:11:45,0.0
-10232,2708,-5504,-1997,-2026,3760,2025-01-27 14:11:45,0.0
-9784,1908,-5460,-2022,-1663,3639,2025-01-27 14:11:45,0.0
-8464,988,-5252,-1515,-1121,3149,2025-01-27 14:11:45,0.0
-7740,532,-4168,-771,-283,2240,2025-01-27 14:11:45,0.0
-8044,776,-3520,-217,360,1891,2025-01-27 14:11:45,0.0
-7604,984,-3136,306,779,1836,2025-01-27 14:11:45,0.0
-7928,1208,-2660,649,1055,1591,2025-01-27 14:11:45,0.0
-8556,1084,-2824,1303,1360,1109,2025-01-27 14:11:45,0.0
-8504,824,-2832,2089,1136,222,2025-01-27 14:11:45,0.0
-8568,556,-3368,2303,711,-802,2025-01-27 14:11:45,0.0
-9508,728,-2792,2152,352,-1568,2025-01-27 14:11:45,0.0
-10616,884,-1404,2343,185,-1992,2025-01-27 14:11:45,0.0
-11864,792,64,2352,44,-2049,2025-01-27 14:11:45,0.0
-11092,912,-316,2424,-480,-1699,2025-01-27 14:11:45,0.0
-9672,284,-1528,2796,-1114,-1554,2025-01-27 14:11:45,0.0
-8012,192,-3280,3417,-529,-2569,2025-01-27 14:11:45,0.0
-7908,952,-4788,3477,1268,-4514,2025-01-27 14:11:45,0.0
-10408,1672,-3788,3271,2892,-6338,2025-01-27 14:11:45,0.0
-12676,1616,-4116,2785,2407,-6094,2025-01-27 14:11:45,0.0
-13980,992,-4340,1998,942,-4344,2025-01-27 14:11:45,0.0
-12276,-496,-4764,2006,-527,-2729,2025-01-27 14:11:45,0.0
-10692,-1776,-5668,2220,-731,-2383,2025-01-27 14:11:45,0.0
-10464,-1884,-4232,1874,556,-2930,2025-01-27 14:11:45,0.0
-11348,-684,-2988,1895,702,-3692,2025-01-27 14:11:45,0.0
-12544,484,-3668,2362,-476,-4268,2025-01-27 14:11:45,0.0
-13184,2484,-4008,2620,-2171,-4161,2025-01-27 14:11:45,0.0
-12632,3184,-4060,2314,-3128,-3940,2025-01-27 14:11:45,0.0
-12292,2764,-4684,2016,-2318,-3671,2025-01-27 14:11:45,0.0
-12800,1692,-5524,1775,-140,-3296,2025-01-27 14:11:45,0.0
-14320,1132,-8024,1267,2049,-2939,2025-01-27 14:11:45,0.0
-15900,-332,-13808,-253,4238,-1961,2025-01-27 14:11:45,0.0
-17092,-1920,-16660,-2259,5209,-1220,2025-01-27 14:11:45,0.0
-18692,-3488,-12064,-2807,5054,37,2025-01-27 14:11:45,
-16760,-4940,-8072,-1427,2082,690,2025-01-27 14:11:45,0.0
-15460,-6080,-9892,-613,-118,-225,2025-01-27 14:11:45,0.0
-16456,-5164,-9584,-253,663,-575,2025-01-27 14:11:45,0.0
-17148,-3192,-7560,785,1753,-407,2025-01-27 14:11:45,0.0
-17652,-1504,-5628,1949,1650,-232,2025-01-27 14:11:45,0.0
-16708,-960,-6376,2403,43,-89,2025-01-27 14:11:45,0.0
-14816,-1732,-7616,2166,-1320,-568,2025-01-27 14:11:45,0.0
-13720,-2688,-7256,1242,-1723,-1111,2025-01-27 14:11:45,0.0
-11856,-3600,-7084,856,-1376,-1370,2025-01-27 14:11:45,0.0
-10484,-4508,-6468,1143,-398,-1734,2025-01-27 14:11:45,0.0
-9952,-4964,-6016,1804,309,-2422,2025-01-27 14:11:45,0.0
-9648,-3844,-5312,2309,688,-2381,2025-01-27 14:11:45,0.0
-9648,-2520,-4916,2186,1118,-2071,2025-01-27 14:11:45,0.0
-8892,-1448,-5848,1726,1881,-1776,2025-01-27 14:11:45,0.0
-9440,-1304,-6096,887,2868,-1489,2025-01-27 14:11:45,0.0
-9860,-2268,-5172,222,3373,-1222,2025-01-27 14:11:45,0.0
-10832,-3508,-4368,-36,3286,-894,2025-01-27 14:11:45,0.0
-11776,-4576,-4592,-103,2410,-291,2025-01-27 14:11:45,0.0
-11760,-5160,-4760,-283,1496,605,2025-01-27 14:11:45,0.0
-10408,-4152,-4936,-61,736,1624,2025-01-27 14:11:45,0.0
-9760,-2992,-5740,-246,531,1877,2025-01-27 14:11:45,0.0
-10064,-1540,-4560,-904,845,1675,2025-01-27 14:11:45,0.0
-10968,-588,-3812,-1673,-204,1456,2025-01-27 14:11:45,0.0
-12740,164,-2788,-2341,-2143,1816,2025-01-27 14:11:45,0.0
-13268,356,-1940,-2693,-4500,2924,2025-01-27 14:11:45,0.0
-11296,-464,-3036,-3345,-6381,3901,2025-01-27 14:11:45,0.0
-8508,-1612,-3740,-3978,-7125,4220,2025-01-27 14:11:46,0.0
-5520,-2556,-3024,-3597,-5868,3921,2025-01-27 14:11:46,0.0
-3952,-2560,-980,-2387,-3722,3075,2025-01-27 14:11:46,0.0
-3388,-1516,-1052,-1699,-847,1977,2025-01-27 14:11:46,0.0
-5740,-376,-2088,-2603,2389,1515,2025-01-27 14:11:46,0.0
-9020,-240,-2788,-3651,5368,2160,2025-01-27 14:11:46,0.0
-11356,-968,-4088,-4243,6985,3285,2025-01-27 14:11:46,0.0
-12052,-3028,-6148,-4817,6824,3636,2025-01-27 14:11:46,0.0
-11856,-4888,-5556,-4489,4202,2358,2025-01-27 14:11:46,0.0
-12268,-5192,-2680,-2332,677,229,2025-01-27 14:11:46,0.0
-13576,-3456,-876,-956,-1251,-109,2025-01-27 14:11:46,0.0
-13900,-2160,-768,-425,-1950,1058,2025-01-27 14:11:46,0.0
-12604,-2492,-4796,-670,-2585,1563,2025-01-27 14:11:46,0.0
-12484,-2468,-10576,-408,-1624,800,2025-01-27 14:11:46,0.0
-14188,-2596,-13344,-443,-459,-18,2025-01-27 14:11:46,0.0
-16364,-1116,-11620,1618,186,-822,2025-01-27 14:11:46,0.0
-19808,992,-12328,2176,67,-854,2025-01-27 14:11:46,0.0
-22104,2080,-10148,809,-2413,175,2025-01-27 14:11:46,0.0
-22068,2252,-10368,291,-5402,1702,2025-01-27 14:11:46,0.0
-19052,3488,-11232,399,-3345,2034,2025-01-27 14:11:46,0.0
-16404,2496,-9996,-374,-73,495,2025-01-27 14:11:46,0.0
-16676,608,-7308,-1273,705,-59,2025-01-27 14:11:46,0.0
-17480,-512,-6468,-1738,121,1120,2025-01-27 14:11:46,0.0
-16508,-404,-5076,-1458,-1202,2079,2025-01-27 14:11:46,0.0
-15380,300,-5124,-640,-2165,1867,2025-01-27 14:11:46,0.0
-15268,2752,-5372,-290,-1087,2251,2025-01-27 14:11:46,0.0
-13672,3712,-5636,-465,-381,2378,2025-01-27 14:11:46,0.0
-11580,3256,-5808,-711,-430,1893,2025-01-27 14:11:46,0.0
-10140,2316,-6472,-1035,-57,1458,2025-01-27 14:11:46,0.0
-8828,1204,-6808,-1395,785,1225,2025-01-27 14:11:46,0.0
-7632,148,-5920,-1443,1419,855,2025-01-27 14:11:46,0.0
-6748,-196,-5376,-1245,1677,254,2025-01-27 14:11:46,0.0
-6984,336,-4008,-879,2326,-399,2025-01-27 14:11:46,0.0
-7440,1540,-3476,-472,2552,-815,2025-01-27 14:11:46,0.0
-8008,2416,-3872,-462,2432,-1087,2025-01-27 14:11:46,0.0
-8448,2536,-3908,-395,2210,-1639,2025-01-27 14:11:46,0.0
-9360,1576,-3660,-376,1861,-2244,2025-01-27 14:11:46,0.0
-9212,400,-3436,-190,766,-2753,2025-01-27 14:11:46,0.0
-8724,-120,-3260,12,-382,-3421,2025-01-27 14:11:46,0.0
-9152,-568,-2112,488,-1416,-4182,2025-01-27 14:11:46,0.0
-8732,-1144,-2232,1452,-1437,-4508,2025-01-27 14:11:46,0.0
-8604,-1868,-1512,2702,-1053,-4786,2025-01-27 14:11:46,0.0
-8664,-1448,-1428,3571,-2237,-4940,2025-01-27 14:11:46,0.0
-9300,756,-632,4207,-3929,-4577,2025-01-27 14:11:46,0.0
-9984,908,-1508,4014,-3637,-3131,2025-01-27 14:11:46,0.0
-9184,-136,-3716,3271,-934,-2164,2025-01-27 14:11:46,0.0
-9752,-1180,-5492,2384,2634,-2062,2025-01-27 14:11:46,0.0
-11344,-1196,-4812,1782,4194,-2295,2025-01-27 14:11:46,0.0
-14356,-452,-3700,2430,3772,-2651,2025-01-27 14:11:46,0.0
-16688,528,-3360,3311,842,-2586,2025-01-27 14:11:46,0.0
-17596,1184,-3844,3574,-3289,-1642,2025-01-27 14:11:46,0.0
-15796,1828,-3612,3596,-5967,-619,2025-01-27 14:11:46,0.0
-13712,2136,-2648,3407,-5967,-124,2025-01-27 14:11:46,0.0
-12472,2596,-5332,2801,-4491,342,2025-01-27 14:11:46,0.0
-11876,2328,-8392,1791,-1864,319,2025-01-27 14:11:46,0.0
-13036,1800,-9804,799,111,-313,2025-01-27 14:11:46,0.0
-13884,780,-10984,-106,-308,-203,2025-01-27 14:11:46,0.0
-13712,-2336,-10956,-687,-836,-317,2025-01-27 14:11:46,0.0
-12984,-4896,-9788,-353,-1983,-1140,2025-01-27 14:11:46,0.0
-13732,-5824,-9480,-126,-3384,-1888,2025-01-27 14:11:46,0.0
-16484,-5276,-10268,-483,-1840,-927,2025-01-27 14:11:46,0.0
-18144,-4916,-8908,-1851,2094,773,2025-01-27 14:11:46,0.0
-17716,-1880,-3724,-1450,2202,280,2025-01-27 14:11:47,0.0
-20048,620,-3696,-573,321,-1036,2025-01-27 14:11:47,0.0
-21632,1080,-5332,-1238,-885,-916,2025-01-27 14:11:47,0.0
-19120,-592,-7288,-2510,-2035,-370,2025-01-27 14:11:47,0.0
-17404,-3260,-6472,-3592,-1532,-1004,2025-01-27 14:11:47,0.0
-15484,-5600,-4908,-3889,-1286,-2044,2025-01-27 14:11:47,0.0
-14048,-6624,-2768,-2435,-890,-2238,2025-01-27 14:11:47,0.0
-11964,-6540,-2936,-414,71,-2075,2025-01-27 14:11:47,0.0
-10688,-5096,-4048,1027,2413,-2020,2025-01-27 14:11:47,0.0
-10840,-3300,-4552,1234,4074,-1666,2025-01-27 14:11:47,0.0
-10980,-1420,-4716,1105,4282,-1051,2025-01-27 14:11:47,0.0
-10992,-372,-4844,602,3929,-610,2025-01-27 14:11:47,
-10852,-804,-4256,-204,3465,-485,2025-01-27 14:11:47,0.0
-11068,-1864,-3452,-554,3025,-252,2025-01-27 14:11:47,0.0
-10888,-2936,-3712,-734,2356,82,2025-01-27 14:11:47,0.0
-10732,-2848,-3944,-973,1830,268,2025-01-27 14:11:47,0.0
-10320,-2284,-4332,-1185,1113,629,2025-01-27 14:11:47,0.0
-10308,-1656,-4240,-1389,516,1143,2025-01-27 14:11:47,0.0
-10332,-1352,-4240,-1756,199,1687,2025-01-27 14:11:47,0.0
-10304,-1308,-3564,-2021,-129,1992,2025-01-27 14:11:47,0.0
-10560,-1400,-3168,-2260,-604,2320,2025-01-27 14:11:47,0.0
-10988,-1644,-2476,-2321,-1030,2651,2025-01-27 14:11:47,0.0
-10788,-1640,-2988,-2279,-1682,3008,2025-01-27 14:11:47,0.0
-10164,-1708,-3136,-2231,-2237,3417,2025-01-27 14:11:47,0.0
-9420,-1320,-2704,-2137,-2924,3925,2025-01-27 14:11:47,0.0
-8060,-1588,-1564,-1793,-2772,4316,2025-01-27 14:11:47,0.0
-7136,-2160,-1340,-1459,-1616,3940,2025-01-27 14:11:47,0.0
-7404,-2560,-2324,-1383,-340,3093,2025-01-27 14:11:47,0.0
-8228,-2632,-3020,-891,626,2285,2025-01-27 14:11:47,0.0
-9352,-2060,-4672,-439,1218,1728,2025-01-27 14:11:47,0.0
-10580,-1760,-3480,-370,1715,1435,2025-01-27 14:11:47,0.0
-11948,-1324,-1688,45,1058,1378,2025-01-27 14:11:47,0.0
-13148,-736,-800,394,-525,1333,2025-01-27 14:11:47,0.0
-13612,-1208,-1256,225,-2454,1139,2025-01-27 14:11:47,0.0
-13772,-3052,-1356,761,-3812,1615,2025-01-27 14:11:47,0.0
-14024,-4028,-1012,1224,-3181,2599,2025-01-27 14:11:47,0.0
-14228,-4636,-652,1920,-1300,3254,2025-01-27 14:11:47,0.0
-14524,-5136,-4800,2700,21,2740,2025-01-27 14:11:47,0.0
-15316,-4912,-7708,3773,188,1220,2025-01-27 14:11:47,0.0
-16944,-2544,-8100,6120,512,-280,2025-01-27 14:11:47,0.0
-19716,1320,-8620,6887,963,-210,2025-01-27 14:11:47,0.0
-23652,5220,-7996,5175,1227,2885,2025-01-27 14:11:47,0.0
-21892,5984,-8888,2264,-363,6530,2025-01-27 14:11:47,0.0
-15168,2876,-9992,985,-3232,6554,2025-01-27 14:11:47,0.0
-11040,996,-13936,599,-2756,3982,2025-01-27 14:11:47,0.0
-10352,-276,-11632,1616,4985,-1443,2025-01-27 14:11:47,0.0
-15628,272,-7296,827,9596,-2766,2025-01-27 14:11:47,0.0
-19644,2480,-6048,-307,7907,-799,2025-01-27 14:11:47,0.0
-21408,4544,-6176,-1643,2816,1666,2025-01-27 14:11:47,0.0
-20596,4884,-5192,-2468,-2324,3291,2025-01-27 14:11:47,0.0
-16636,3656,-6056,-2586,-5632,3509,2025-01-27 14:11:47,0.0
-13196,1768,-5804,-2891,-6661,3421,2025-01-27 14:11:47,0.0
-9376,-100,-4128,-2859,-5876,3078,2025-01-27 14:11:47,0.0
-6392,-1456,-2464,-2088,-3286,2203,2025-01-27 14:11:47,0.0
-5692,-1540,-1860,-1107,83,1406,2025-01-27 14:11:47,0.0
-6228,-184,-2004,-293,3136,953,2025-01-27 14:11:47,0.0
-6976,776,-1956,-23,4465,503,2025-01-27 14:11:47,0.0
-7632,1360,-1968,-116,4047,-383,2025-01-27 14:11:47,0.0
-8916,1292,-2468,6,3372,-1474,2025-01-27 14:11:47,0.0
-9236,1080,-3084,447,2929,-2134,2025-01-27 14:11:47,0.0
-9924,1396,-3256,704,2669,-2815,2025-01-27 14:11:48,0.0
-10396,2184,-2896,636,2011,-3424,2025-01-27 14:11:48,0.0
-10356,2852,-3160,290,662,-3799,2025-01-27 14:11:48,0.0
-9640,2940,-3864,-200,-827,-3677,2025-01-27 14:11:48,0.0
-8100,2000,-3208,-1014,-1319,-3516,2025-01-27 14:11:48,0.0
-7724,1200,-1500,-1605,-82,-3799,2025-01-27 14:11:48,0.0
-8296,928,-796,-1929,1703,-4629,2025-01-27 14:11:48,0.0
-10280,1176,-1804,-1509,2143,-5320,2025-01-27 14:11:48,0.0
-11796,716,-3480,-1002,1830,-5332,2025-01-27 14:11:48,0.0
-13008,116,-3996,-670,1292,-4480,2025-01-27 14:11:48,0.0
-13640,-384,-2988,-1107,1766,-3294,2025-01-27 14:11:48,0.0
-14412,-288,-1708,-1049,1609,-2770,2025-01-27 14:11:48,0.0
-15512,-824,-1216,-460,527,-2321,2025-01-27 14:11:48,0.0
-15104,-1436,-1900,687,-1227,-1797,2025-01-27 14:11:48,0.0
-14232,-1372,-2880,1358,-2275,-1314,2025-01-27 14:11:48,0.0
-12872,-456,-3308,1646,-2221,-1563,2025-01-27 14:11:48,0.0
-12444,492,-3576,1819,-2108,-1932,2025-01-27 14:11:48,0.0
-12340,1780,-2964,1802,-1825,-2250,2025-01-27 14:11:48,0.0
-12756,3320,-3872,1517,-1984,-2260,2025-01-27 14:11:48,0.0
-13264,3964,-6568,658,-2015,-1866,2025-01-27 14:11:48,0.0
-14748,3280,-7656,-32,-75,-1597,2025-01-27 14:11:48,0.0
-14992,1124,-9344,-816,1841,-1858,2025-01-27 14:11:48,0.0
-15964,-1124,-11912,-1954,2510,-2078,2025-01-27 14:11:48,0.0
-16028,-3920,-11260,-2684,750,-1782,2025-01-27 14:11:48,0.0
-15608,-5788,-7440,-1811,-796,-893,2025-01-27 14:11:48,0.0
-14192,-6632,-6792,-834,-308,-462,2025-01-27 14:11:48,0.0
-13884,-5788,-7192,-412,1416,-603,2025-01-27 14:11:48,0.0
-15580,-3448,-6756,542,3876,84,2025-01-27 14:11:48,0.0
-17876,-1456,-6604,870,4169,228,2025-01-27 14:11:48,0.0
-20448,-520,-7088,900,1789,-152,2025-01-27 14:11:48,0.0
-20660,-1172,-6736,296,-1622,-43,2025-01-27 14:11:48,0.0
-17980,-2260,-5216,510,-4024,-109,2025-01-27 14:11:48,0.0
-14112,-3068,-4412,1043,-4479,-899,2025-01-27 14:11:48,0.0
-11172,-3148,-4628,1541,-3532,-1633,2025-01-27 14:11:48,0.0
-10448,-3168,-4740,1903,-1727,-2196,2025-01-27 14:11:48,0.0
-10788,-1860,-6100,2074,1378,-1483,2025-01-27 14:11:48,0.0
-10292,-480,-6776,1335,3064,-702,2025-01-27 14:11:48,0.0
-10532,-116,-5560,391,3414,-410,2025-01-27 14:11:48,0.0
-10544,-148,-5008,-440,2684,-613,2025-01-27 14:11:48,0.0
-10500,-1116,-4920,-1074,1767,-940,2025-01-27 14:11:48,0.0
-10796,-2164,-4472,-1419,1409,-585,2025-01-27 14:11:48,0.0
-10368,-2672,-4020,-1565,1403,305,2025-01-27 14:11:48,0.0
-9700,-2804,-3692,-1553,1374,592,2025-01-27 14:11:48,0.0
-9236,-2664,-4104,-1794,1235,574,2025-01-27 14:11:48,0.0
-9404,-2032,-3756,-2133,529,501,2025-01-27 14:11:48,0.0
-9604,-1344,-3260,-2257,-342,611,2025-01-27 14:11:48,0.0
-9800,-792,-2888,-2507,-1432,657,2025-01-27 14:11:48,0.0
-9616,-432,-2708,-2967,-2217,986,2025-01-27 14:11:48,0.0
-9648,-224,-2844,-3345,-2038,1656,2025-01-27 14:11:48,0.0
-9540,-408,-2560,-3571,-1289,2430,2025-01-27 14:11:48,0.0
-8756,-1772,-1968,-3555,-306,2684,2025-01-27 14:11:48,0.0
-7900,-3320,-1228,-3358,-25,2254,2025-01-27 14:11:48,
-7080,-3736,-1776,-2369,-341,1228,2025-01-27 14:11:48,0.0
-7296,-2880,-3248,-1621,225,574,2025-01-27 14:11:48,0.0
-8952,-2296,-3512,-1669,3034,446,2025-01-27 14:11:48,0.0
-11040,-1636,-2696,-1801,5403,723,2025-01-27 14:11:48,0.0
-13116,-2052,-1684,-1977,6412,1078,2025-01-27 14:11:48,0.0
-14400,-2812,-1456,-1833,5068,1051,2025-01-27 14:11:48,0.0
-14724,-3348,-1780,-1479,1528,1035,2025-01-27 14:11:48,0.0
-14008,-3180,-2992,-800,-1886,1313,2025-01-27 14:11:48,0.0
-12788,-2624,-6184,445,-1570,808,2025-01-27 14:11:48,0.0
-13980,-1908,-8556,858,1366,-466,2025-01-27 14:11:49,0.0
-16124,-716,-8924,2264,2573,-1119,2025-01-27 14:11:49,0.0
-18840,628,-12200,3163,939,-936,2025-01-27 14:11:49,0.0
-20616,1592,-11952,2905,-1276,-381,2025-01-27 14:11:49,0.0
-21320,1656,-10268,1370,-3159,888,2025-01-27 14:11:49,0.0
-19424,804,-8224,75,-3577,2526,2025-01-27 14:11:49,0.0
-16228,1136,-10368,607,-2466,3026,2025-01-27 14:11:49,0.0
-13896,760,-10376,546,1069,1120,2025-01-27 14:11:49,0.0
-15480,-268,-6976,-128,3083,-516,2025-01-27 14:11:49,0.0
-17068,564,-5216,182,2140,340,2025-01-27 14:11:49,0.0
-17768,2180,-6492,-585,298,2276,2025-01-27 14:11:49,0.0
-16748,2576,-5428,-1283,-1242,2592,2025-01-27 14:11:49,0.0
-15016,2696,-6552,-1032,-2351,2734,2025-01-27 14:11:49,0.0
-13872,2620,-5848,-868,-2316,3190,2025-01-27 14:11:49,0.0
-10748,1600,-6312,-992,-1598,2912,2025-01-27 14:11:49,0.0
-9404,652,-5640,-1159,-514,2240,2025-01-27 14:11:49,0.0
-8792,336,-4804,-760,671,1730,2025-01-27 14:11:49,0.0
-8784,464,-4660,-253,1745,1594,2025-01-27 14:11:49,0.0
-8680,816,-4740,-66,3000,1497,2025-01-27 14:11:49,0.0
-8680,1236,-4272,-95,3555,979,2025-01-27 14:11:49,0.0
-9196,1232,-3644,8,3176,373,2025-01-27 14:11:49,0.0
-9728,1236,-3596,231,2165,-265,2025-01-27 14:11:49,0.0
-9964,1300,-3764,764,899,-945,2025-01-27 14:11:49,0.0
-10152,1404,-4308,1173,213,-1425,2025-01-27 14:11:49,0.0
-9864,1380,-4160,1423,-345,-1657,2025-01-27 14:11:49,0.0
-9340,956,-3516,1419,-581,-1613,2025-01-27 14:11:49,0.0
-7364,12,-3176,855,-463,-1737,2025-01-27 14:11:49,0.0
-7712,-668,-1828,652,441,-2213,2025-01-27 14:11:49,0.0
-8300,-912,-1280,1129,1362,-3262,2025-01-27 14:11:49,0.0
-9424,-456,-1992,1687,979,-4664,2025-01-27 14:11:49,0.0
-10788,1132,-2496,2289,-1920,-5426,2025-01-27 14:11:49,0.0
-11392,2472,-2944,2343,-5147,-4510,2025-01-27 14:11:49,0.0
-9952,3060,-3824,1342,-5967,-2886,2025-01-27 14:11:49,0.0
-8436,2436,-4620,-484,-3734,-2471,2025-01-27 14:11:49,0.0
-8840,1340,-4652,-1781,360,-3044,2025-01-27 14:11:49,0.0
-10956,436,-3564,-1585,2803,-3344,2025-01-27 14:11:49,0.0
-13396,12,-3312,-648,2030,-3133,2025-01-27 14:11:49,0.0
-14828,120,-3044,-179,38,-2106,2025-01-27 14:11:49,0.0
-14132,-144,-1596,348,-1895,-853,2025-01-27 14:11:49,0.0
-11996,-1036,-744,1056,-3067,-192,2025-01-27 14:11:49,0.0
-9732,-1116,-428,1872,-2468,-399,2025-01-27 14:11:49,0.0
-9088,1184,-2388,2296,-1041,-731,2025-01-27 14:11:49,0.0
-11296,1312,-5544,1405,1436,-1081,2025-01-27 14:11:49,0.0
-14232,560,-6828,1203,4766,-1519,2025-01-27 14:11:49,0.0
-17400,1816,-12376,232,5661,-2115,2025-01-27 14:11:49,0.0
-20836,1640,-16732,-1583,3745,-1526,2025-01-27 14:11:49,0.0
-22436,-1704,-14580,-3015,172,531,2025-01-27 14:11:49,0.0
-20520,-6100,-8404,-2984,-2732,1921,2025-01-27 14:11:49,0.0
-17516,-7620,-7324,-1906,-2834,1105,2025-01-27 14:11:49,0.0
-16332,-6688,-6840,-726,-1739,-264,2025-01-27 14:11:49,0.0
-17340,-2416,-6488,392,-800,-370,2025-01-27 14:11:49,0.0
-18476,980,-5836,933,977,435,2025-01-27 14:11:49,0.0
-17300,1824,-5264,1280,564,249,2025-01-27 14:11:49,0.0
-16300,232,-5092,1133,-1241,-1179,2025-01-27 14:11:49,0.0
-16040,-1448,-4984,1026,-2115,-2008,2025-01-27 14:11:49,0.0
-14524,-4012,-5632,880,-1990,-2636,2025-01-27 14:11:49,0.0
-13188,-5160,-5092,879,-1144,-2650,2025-01-27 14:11:49,0.0
-11616,-4672,-4412,1531,295,-2125,2025-01-27 14:11:49,0.0
-9944,-3052,-4800,2071,1469,-1801,2025-01-27 14:11:49,0.0
-9404,-1028,-5472,1963,2493,-1658,2025-01-27 14:11:49,0.0
-8696,452,-6208,1210,2998,-1493,2025-01-27 14:11:49,0.0
-9132,568,-5352,120,3512,-1468,2025-01-27 14:11:50,0.0
-9928,-908,-4180,-526,3657,-1514,2025-01-27 14:11:50,0.0
-11184,-2644,-4004,-626,3280,-1276,2025-01-27 14:11:50,0.0
-11760,-3780,-3808,-590,2645,-488,2025-01-27 14:11:50,0.0
-11228,-3980,-4312,-561,1800,290,2025-01-27 14:11:50,0.0
-10624,-3620,-4780,-652,744,808,2025-01-27 14:11:50,0.0
-10084,-2572,-4424,-679,-101,1390,2025-01-27 14:11:50,0.0
-9944,-1328,-4452,-808,-252,1884,2025-01-27 14:11:50,0.0
-10520,-912,-3652,-1216,-270,2177,2025-01-27 14:11:50,0.0
-11272,-552,-2748,-1414,-848,2632,2025-01-27 14:11:50,0.0
-10912,-524,-2464,-1488,-2099,2941,2025-01-27 14:11:50,0.0
-9640,-996,-2272,-1503,-3518,2826,2025-01-27 14:11:50,0.0
-7744,-1612,-2336,-1577,-4603,2369,2025-01-27 14:11:50,0.0
-6052,-1884,-1924,-1182,-4493,2118,2025-01-27 14:11:50,0.0
-6500,-2248,-292,-516,-2158,2202,2025-01-27 14:11:50,0.0
-7396,-2536,-408,0,1336,2630,2025-01-27 14:11:50,0.0
-9552,-3316,-2800,-445,4263,2826,2025-01-27 14:11:50,0.0
-11272,-3248,-4824,-690,5082,2734,2025-01-27 14:11:50,0.0
-12000,-2008,-4172,52,4335,2269,2025-01-27 14:11:50,0.0
-12816,-176,-1980,514,3434,1524,2025-01-27 14:11:50,0.0
-13648,-4,-1264,-295,2667,1084,2025-01-27 14:11:50,0.0
-13844,-816,-1788,-980,1212,1304,2025-01-27 14:11:50,0.0
-11868,-1960,-3616,-1072,-403,1668,2025-01-27 14:11:50,0.0
-10140,-2900,-5112,-961,-285,1238,2025-01-27 14:11:50,0.0
-9448,-3196,-7692,-623,1105,85,2025-01-27 14:11:50,0.0
-11840,-1544,-9760,232,3091,-2347,2025-01-27 14:11:50,0.0
-15796,172,-11368,1349,4001,-3022,2025-01-27 14:11:50,0.0
-20140,1532,-12796,1267,2520,-2145,2025-01-27 14:11:50,0.0
-23596,2780,-11276,385,-1161,470,2025-01-27 14:11:50,0.0
-21156,1544,-10148,-740,-6856,3701,2025-01-27 14:11:50,
-16096,164,-11840,-1359,-8085,4345,2025-01-27 14:11:50,0.0
-12644,604,-12944,-1043,-3178,1777,2025-01-27 14:11:50,0.0
-13776,-456,-9732,-718,4003,-2624,2025-01-27 14:11:50,0.0
-17828,672,-7032,-262,4623,-3685,2025-01-27 14:11:50,0.0
-22296,2680,-7260,-1074,2333,-904,2025-01-27 14:11:50,0.0
-21636,3016,-7060,-1815,-848,1659,2025-01-27 14:11:50,0.0
-19488,1684,-7140,-1794,-3001,2690,2025-01-27 14:11:50,0.0
-15996,796,-6672,-2033,-3918,3735,2025-01-27 14:11:50,0.0
-11024,-80,-5648,-2078,-4279,4325,2025-01-27 14:11:50,0.0
-8016,-388,-4376,-1816,-3355,3790,2025-01-27 14:11:50,0.0
-6908,144,-3696,-1349,-1451,3257,2025-01-27 14:11:50,0.0
-6508,924,-3716,-595,929,2730,2025-01-27 14:11:50,0.0
-6312,1500,-4264,-90,3257,2159,2025-01-27 14:11:50,0.0
-6908,1836,-3580,75,4864,1189,2025-01-27 14:11:50,0.0
-8144,2132,-3552,-29,5263,119,2025-01-27 14:11:50,0.0
-9420,2024,-3568,-363,4811,-917,2025-01-27 14:11:50,0.0
-10188,1108,-3084,-141,4000,-1643,2025-01-27 14:11:50,0.0
-10164,676,-2972,541,3188,-2004,2025-01-27 14:11:50,0.0
-10028,368,-3352,1025,2395,-2018,2025-01-27 14:11:50,0.0
-9824,552,-3108,1056,1645,-2016,2025-01-27 14:11:50,0.0
-9452,180,-2888,514,814,-2449,2025-01-27 14:11:50,0.0
-9672,-212,-1864,424,362,-3358,2025-01-27 14:11:50,0.0
-11136,-620,-1120,810,238,-4590,2025-01-27 14:11:50,0.0
-12212,-432,-1640,1415,-1192,-5710,2025-01-27 14:11:50,0.0
-13132,840,-1464,2401,-4823,-5637,2025-01-27 14:11:50,0.0
-11760,2372,-2380,2790,-8042,-4321,2025-01-27 14:11:50,0.0
-8864,2144,-4800,1544,-8013,-3122,2025-01-27 14:11:50,0.0
-6868,844,-5600,-470,-4199,-3137,2025-01-27 14:11:50,0.0
-7300,-352,-4104,-1028,1108,-3194,2025-01-27 14:11:50,0.0
-9440,-700,-3212,-462,4311,-2837,2025-01-27 14:11:50,0.0
-11324,-1336,-3452,62,4504,-2549,2025-01-27 14:11:50,0.0
-13744,-956,-2708,738,2623,-1885,2025-01-27 14:11:51,0.0
-15492,-184,-1324,1611,274,-430,2025-01-27 14:11:51,0.0
-14528,848,-636,2433,-2025,763,2025-01-27 14:11:51,0.0
-12768,1104,-1652,2625,-3305,955,2025-01-27 14:11:51,0.0
-12336,932,-712,2938,-3793,519,2025-01-27 14:11:51,0.0
-10440,1588,-4932,3132,-3210,200,2025-01-27 14:11:51,0.0
-11796,1020,-7356,2401,-1166,122,2025-01-27 14:11:51,0.0
-14368,2068,-10872,2108,1638,506,2025-01-27 14:11:51,0.0
-17268,2080,-15184,-473,3264,1626,2025-01-27 14:11:51,0.0
-18016,-200,-14200,-2988,3845,2406,2025-01-27 14:11:51,0.0
-18464,-2992,-8604,-3117,2538,1413,2025-01-27 14:11:51,0.0
-18980,-5336,-6788,-2003,443,405,2025-01-27 14:11:51,0.0
-17820,-5816,-6716,-913,-1218,-265,2025-01-27 14:11:51,0.0
-15788,-4220,-7712,660,-1943,-1163,2025-01-27 14:11:51,0.0
-17308,-2648,-9632,1257,312,-698,2025-01-27 14:11:51,0.0
-17840,-2012,-7180,1661,2166,-333,2025-01-27 14:11:51,0.0
-16960,-1732,-5632,2110,77,-1300,2025-01-27 14:11:51,0.0
-17508,-1464,-3692,2497,-2799,-1696,2025-01-27 14:11:51,0.0
-14844,-2068,-4768,2721,-3214,-1654,2025-01-27 14:11:51,0.0
-12900,-2884,-5668,2316,-2497,-1845,2025-01-27 14:11:51,0.0
-11576,-3508,-5956,2148,-1574,-1992,2025-01-27 14:11:51,0.0
-10840,-3312,-5628,2253,-506,-1865,2025-01-27 14:11:51,0.0
-9908,-2544,-5464,2225,744,-1578,2025-01-27 14:11:51,0.0
-10132,-1532,-4620,2039,1903,-1299,2025-01-27 14:11:51,0.0
-9060,-1248,-5328,1590,2745,-906,2025-01-27 14:11:51,0.0
-9808,-1532,-4516,1230,3139,-525,2025-01-27 14:11:51,0.0
-10084,-1948,-3928,1042,3045,129,2025-01-27 14:11:51,0.0
-10204,-2528,-3416,1179,2839,909,2025-01-27 14:11:51,0.0
-10284,-2752,-2840,1244,2794,1598,2025-01-27 14:11:51,0.0
-10880,-2928,-3116,1093,2475,2205,2025-01-27 14:11:51,0.0
-11296,-2744,-3848,991,1325,2589,2025-01-27 14:11:51,0.0
-11548,-1480,-3452,884,-147,3059,2025-01-27 14:11:51,0.0
-11580,-224,-2852,795,-1482,3674,2025-01-27 14:11:51,0.0
-11508,-24,-3420,285,-1937,4494,2025-01-27 14:11:51,0.0
-12224,-1084,-2732,-538,-1336,5368,2025-01-27 14:11:51,0.0
-12064,-2020,-1932,-758,-1989,6189,2025-01-27 14:11:51,0.0
-10352,-2820,-1932,-498,-3764,6314,2025-01-27 14:11:51,0.0
-8308,-3312,-1636,63,-5003,5465,2025-01-27 14:11:51,0.0
-6728,-2984,-1036,1032,-4901,4260,2025-01-27 14:11:51,0.0
-6032,-2056,-1212,2049,-2960,3258,2025-01-27 14:11:51,0.0
-7060,-1240,-2928,2273,492,2685,2025-01-27 14:11:51,0.0
-9396,-1304,-3224,1578,3699,2521,2025-01-27 14:11:51,0.0
-11744,-652,-2276,1331,4775,2766,2025-01-27 14:11:51,0.0
-13588,-232,-1196,1093,4221,2843,2025-01-27 14:11:51,0.0
-14224,-988,-60,1037,1413,2331,2025-01-27 14:11:51,0.0
-14896,-2376,-520,1724,-3167,2389,2025-01-27 14:11:51,0.0
-13536,-2176,-540,2331,-3555,3487,2025-01-27 14:11:51,0.0
-11288,-2952,-1784,2432,-2136,3527,2025-01-27 14:11:51,0.0
-11144,-3672,-5056,2598,-189,2405,2025-01-27 14:11:51,0.0
-11216,-3936,-8532,3838,1392,290,2025-01-27 14:11:51,0.0
-13828,-2508,-10456,6437,3789,-2287,2025-01-27 14:11:51,0.0
-19432,1152,-11656,8142,5324,-3429,2025-01-27 14:11:51,0.0
-22924,3460,-10924,6639,1592,-1235,2025-01-27 14:11:51,0.0
-23040,2892,-10004,4911,-3529,2153,2025-01-27 14:11:51,0.0
-18408,464,-9576,3606,-5215,4145,2025-01-27 14:11:51,0.0
-13648,-912,-11192,3699,-2814,2998,2025-01-27 14:11:51,0.0
-11912,-2204,-10684,4499,1344,58,2025-01-27 14:11:51,0.0
-15392,-1232,-6268,5855,3763,-1066,2025-01-27 14:11:51,0.0
-18060,360,-5376,7284,2041,1255,2025-01-27 14:11:51,0.0
-18188,984,-6004,7082,-65,4342,2025-01-27 14:11:52,0.0
-17492,288,-6104,6756,-484,5759,2025-01-27 14:11:52,0.0
-15292,-1036,-6376,7392,-937,6570,2025-01-27 14:11:52,0.0
-12644,-1716,-6948,8199,-648,6258,2025-01-27 14:11:52,0.0
-10956,-1980,-6432,9115,-130,5416,2025-01-27 14:11:52,0.0
-10284,-1804,-5184,10308,314,4647,2025-01-27 14:11:52,0.0
-10332,-952,-4484,11467,335,4469,2025-01-27 14:11:52,0.0
-10824,244,-4792,12512,56,5073,2025-01-27 14:11:52,0.0
-10208,936,-5664,13185,265,5982,2025-01-27 14:11:52,0.0
-8180,912,-6320,13544,1171,6216,2025-01-27 14:11:52,
