acceleration_x,acceleration_y,acceleration_z,gyroscope_x,gyroscope_y,gyroscope_z,timestamp,label
-11628,-988,-6128,2449,102,789,2025-01-27 14:12:01,0.0
-11668,-1000,-6392,2563,283,850,2025-01-27 14:12:01,0.0
-11880,-1080,-6252,2623,522,887,2025-01-27 14:12:02,0.0
-11968,-804,-5908,2682,585,881,2025-01-27 14:12:02,0.0
-12096,-808,-5956,2698,538,921,2025-01-27 14:12:02,0.0
-11928,-764,-6276,2738,375,930,2025-01-27 14:12:02,0.0
-11852,-636,-6280,2709,351,895,2025-01-27 14:12:02,0.0
-11988,-708,-6288,2736,442,911,2025-01-27 14:12:02,0.0
-11832,-604,-6332,2649,417,910,2025-01-27 14:12:02,0.0
-11920,-432,-6260,2536,297,926,2025-01-27 14:12:02,0.0
-12040,-464,-6376,2444,302,902,2025-01-27 14:12:02,0.0
-11720,-504,-6388,2339,263,855,2025-01-27 14:12:02,0.0
-11744,-616,-6488,2320,255,815,2025-01-27 14:12:02,0.0
-11564,-820,-6576,2340,238,749,2025-01-27 14:12:02,0.0
-11832,-984,-6656,2332,167,747,2025-01-27 14:12:02,0.0
-11924,-1064,-6516,2428,66,746,2025-01-27 14:12:02,0.0
-11856,-952,-6424,2439,-109,745,2025-01-27 14:12:02,0.0
-11880,-792,-6452,2503,-324,727,2025-01-27 14:12:02,0.0
-12364,-932,-6392,2521,-454,742,2025-01-27 14:12:02,0.0
-12796,-1312,-5856,2580,-530,887,2025-01-27 14:12:02,0.0
-12712,-1280,-5784,2759,-834,1050,2025-01-27 14:12:02,0.0
-12340,-1144,-5720,2880,-1329,1120,2025-01-27 14:12:02,0.0
-11948,-1020,-5580,3015,-1464,1095,2025-01-27 14:12:02,0.0
-11360,-840,-5716,3159,-1247,1078,2025-01-27 14:12:02,0.0
-11132,-684,-5960,3110,-689,978,2025-01-27 14:12:02,0.0
-11260,-412,-6168,2946,-120,876,2025-01-27 14:12:02,0.0
-11692,-480,-5980,2713,389,808,2025-01-27 14:12:02,0.0
-11936,-400,-5860,2474,633,732,2025-01-27 14:12:02,0.0
-12216,-464,-5660,2241,571,698,2025-01-27 14:12:02,0.0
-12460,-376,-6012,1906,359,629,2025-01-27 14:12:02,0.0
-12396,-532,-6028,1603,393,617,2025-01-27 14:12:02,0.0
-12052,-440,-5988,1387,470,607,2025-01-27 14:12:02,0.0
-12052,-656,-5964,1177,547,528,2025-01-27 14:12:02,0.0
-11860,-652,-6096,927,823,377,2025-01-27 14:12:02,0.0
-11996,-776,-5840,653,1122,258,2025-01-27 14:12:02,0.0
-11972,-976,-6244,566,1242,258,2025-01-27 14:12:02,0.0
-11836,-980,-6088,665,1366,267,2025-01-27 14:12:02,0.0
-11776,-920,-6060,635,1359,203,2025-01-27 14:12:02,0.0
-11728,-792,-6848,529,909,59,2025-01-27 14:12:02,0.0
-11780,-872,-6816,343,569,-101,2025-01-27 14:12:02,0.0
-12028,-1028,-6568,151,411,-166,2025-01-27 14:12:02,0.0
-12136,-1040,-6376,-83,114,-194,2025-01-27 14:12:02,0.0
-11876,-968,-6348,-212,-127,-251,2025-01-27 14:12:02,0.0
-11780,-800,-6540,-414,-229,-317,2025-01-27 14:12:02,0.0
-11752,-816,-6528,-572,-228,-336,2025-01-27 14:12:02,0.0
-11564,-892,-6456,-757,-106,-445,2025-01-27 14:12:02,0.0
-11668,-1012,-6388,-893,40,-479,2025-01-27 14:12:02,0.0
-11760,-1024,-6004,-971,107,-579,2025-01-27 14:12:02,0.0
-11792,-1040,-5844,-1026,210,-618,2025-01-27 14:12:02,0.0
-11964,-964,-5996,-1115,300,-637,2025-01-27 14:12:02,0.0
-11928,-896,-6060,-1182,377,-625,2025-01-27 14:12:02,0.0
-11964,-1048,-6008,-1221,592,-625,2025-01-27 14:12:02,0.0
-12084,-1144,-6128,-1262,575,-589,2025-01-27 14:12:02,0.0
-12388,-1288,-6036,-1256,303,-623,2025-01-27 14:12:02,0.0
-12328,-1384,-6332,-1170,80,-523,2025-01-27 14:12:02,0.0
-12284,-1376,-6364,-1111,-211,-466,2025-01-27 14:12:02,0.0
-12228,-1296,-6408,-1047,-708,-433,2025-01-27 14:12:02,0.0
-12288,-1148,-6280,-987,-888,-397,2025-01-27 14:12:02,0.0
-12328,-1132,-6064,-918,-904,-283,2025-01-27 14:12:02,0.0
-12208,-716,-6024,-872,-857,-252,2025-01-27 14:12:02,0.0
-12012,-888,-6324,-912,-977,-287,2025-01-27 14:12:02,0.0
-11740,-1276,-5904,-757,-1075,-328,2025-01-27 14:12:02,0.0
-11664,-1484,-5568,-507,-861,-261,2025-01-27 14:12:02,0.0
-11500,-1428,-5524,-260,-506,-297,2025-01-27 14:12:02,0.0
-11580,-1052,-5852,-147,-309,-275,2025-01-27 14:12:02,0.0
-11776,-1036,-6012,-122,-77,-269,2025-01-27 14:12:03,0.0
-11908,-756,-5900,-101,70,-265,2025-01-27 14:12:03,0.0
-11956,-892,-5592,-136,191,-220,2025-01-27 14:12:03,0.0
-12016,-904,-5592,-110,221,-271,2025-01-27 14:12:03,0.0
-12188,-932,-5556,-90,281,-225,2025-01-27 14:12:03,0.0
-12380,-976,-5540,-2,260,-112,2025-01-27 14:12:03,0.0
-12264,-1060,-5620,28,252,-9,2025-01-27 14:12:03,0.0
-12148,-1152,-5776,116,174,30,2025-01-27 14:12:03,0.0
-12208,-1136,-5820,195,162,110,2025-01-27 14:12:03,0.0
-12216,-1056,-5736,303,112,179,2025-01-27 14:12:03,0.0
-12196,-744,-5760,308,74,193,2025-01-27 14:12:03,0.0
-12172,-660,-5792,153,24,225,2025-01-27 14:12:03,0.0
-12104,-572,-5812,102,47,263,2025-01-27 14:12:03,0.0
-11840,-648,-5728,82,242,220,2025-01-27 14:12:03,0.0
-11960,-800,-5620,-1,436,79,2025-01-27 14:12:03,0.0
-12160,-876,-5548,9,353,-38,2025-01-27 14:12:03,0.0
-12268,-840,-5904,38,157,-102,2025-01-27 14:12:03,0.0
-12108,-728,-5904,2,-56,-62,2025-01-27 14:12:03,0.0
-12016,-396,-6060,-186,-51,-124,2025-01-27 14:12:03,0.0
-12056,-320,-5872,-459,89,-160,2025-01-27 14:12:03,0.0
-11948,-400,-5768,-633,300,-238,2025-01-27 14:12:03,0.0
-11956,-728,-5668,-778,352,-349,2025-01-27 14:12:03,0.0
-12092,-856,-5816,-731,361,-420,2025-01-27 14:12:03,0.0
-12044,-832,-5732,-697,416,-504,2025-01-27 14:12:03,0.0
-12092,-1132,-5740,-713,503,-534,2025-01-27 14:12:03,0.0
-12236,-908,-5812,-724,472,-426,2025-01-27 14:12:03,0.0
-12392,-628,-5604,-726,464,-288,2025-01-27 14:12:03,0.0
-12424,-240,-5796,-902,410,-88,2025-01-27 14:12:03,0.0
-12276,-144,-5896,-1087,439,14,2025-01-27 14:12:03,0.0
-12040,8,-6084,-1335,695,25,2025-01-27 14:12:03,0.0
-11956,-236,-6116,-1529,994,-6,2025-01-27 14:12:03,0.0
-12144,-352,-5892,-1622,993,15,2025-01-27 14:12:03,0.0
-12384,104,-6224,-1644,876,166,2025-01-27 14:12:03,0.0
-12452,588,-6428,-1778,940,301,2025-01-27 14:12:03,0.0
-12264,708,-6420,-1905,603,203,2025-01-27 14:12:03,
-12572,532,-5984,-1892,409,157,2025-01-27 14:12:03,0.0
-12564,84,-5612,-1914,271,220,2025-01-27 14:12:03,0.0
-12320,-244,-5564,-1713,-128,232,2025-01-27 14:12:03,0.0
-12168,-96,-5660,-1433,-393,291,2025-01-27 14:12:03,0.0
-11888,-172,-5424,-1246,-372,113,2025-01-27 14:12:03,0.0
-11776,-40,-5152,-938,-523,-97,2025-01-27 14:12:03,0.0
-11404,368,-5136,-689,-854,-358,2025-01-27 14:12:03,0.0
-11284,920,-5280,-529,-1027,-698,2025-01-27 14:12:03,0.0
-11520,1088,-5316,-702,-646,-1244,2025-01-27 14:12:03,0.0
-11864,1064,-5248,-908,-465,-1743,2025-01-27 14:12:03,0.0
-12316,1040,-5288,-1206,-708,-2287,2025-01-27 14:12:03,0.0
-12288,500,-5416,-1464,-1087,-2993,2025-01-27 14:12:03,0.0
-12312,-208,-5928,-1493,-1251,-3653,2025-01-27 14:12:03,0.0
-12328,-1144,-6460,-1451,-1146,-3932,2025-01-27 14:12:03,0.0
-12024,-1808,-6900,-1040,-866,-3878,2025-01-27 14:12:03,0.0
-11840,-1820,-7988,-375,-998,-3569,2025-01-27 14:12:03,0.0
-11096,-2356,-7892,191,-637,-2955,2025-01-27 14:12:03,0.0
-10420,-3224,-6512,867,318,-2223,2025-01-27 14:12:03,0.0
-10528,-4016,-5860,1198,1125,-1536,2025-01-27 14:12:03,0.0
-11884,-4200,-5172,1392,2161,-1582,2025-01-27 14:12:03,0.0
-13892,-4232,-4612,2015,2425,-2126,2025-01-27 14:12:03,0.0
-15540,-4336,-3388,2930,1803,-2680,2025-01-27 14:12:03,0.0
-15908,-4128,-3024,3484,-323,-3283,2025-01-27 14:12:03,0.0
-15308,-3256,-3260,3501,-2334,-3982,2025-01-27 14:12:03,0.0
-14384,-2040,-3636,3573,-3401,-4861,2025-01-27 14:12:03,0.0
-13172,-1404,-4028,3660,-3932,-5665,2025-01-27 14:12:03,0.0
-12420,-816,-3884,3486,-3559,-5842,2025-01-27 14:12:04,0.0
-11468,-940,-3948,2792,-2388,-5720,2025-01-27 14:12:04,0.0
-9808,-1864,-4492,1709,-1210,-5933,2025-01-27 14:12:04,0.0
-9836,-2732,-4812,956,-311,-6593,2025-01-27 14:12:04,0.0
-10708,-3616,-4792,385,605,-6820,2025-01-27 14:12:04,0.0
-12256,-4136,-4532,-11,980,-6721,2025-01-27 14:12:04,0.0
-13368,-4288,-3796,-210,212,-6723,2025-01-27 14:12:04,0.0
-14204,-4468,-3456,-297,-1286,-6367,2025-01-27 14:12:04,0.0
-14100,-4652,-3160,-418,-2749,-5397,2025-01-27 14:12:04,0.0
-12776,-4188,-3384,-259,-3490,-4664,2025-01-27 14:12:04,0.0
-12196,-4612,-3716,-508,-3691,-4311,2025-01-27 14:12:04,0.0
-11696,-5040,-4144,-1038,-3244,-3971,2025-01-27 14:12:04,0.0
-10860,-5136,-4180,-1341,-2008,-3863,2025-01-27 14:12:04,0.0
-10948,-5260,-3856,-1561,-1065,-3648,2025-01-27 14:12:04,0.0
-10912,-5752,-2960,-1438,-448,-3295,2025-01-27 14:12:04,0.0
-11432,-5860,-2728,-1545,-417,-2839,2025-01-27 14:12:04,0.0
-12200,-5900,-2064,-1520,-317,-2211,2025-01-27 14:12:04,0.0
-12388,-5804,-2064,-1485,-83,-1318,2025-01-27 14:12:04,0.0
-12056,-5772,-1784,-1523,-88,-785,2025-01-27 14:12:04,0.0
-11928,-6136,-2108,-1534,-387,-499,2025-01-27 14:12:04,0.0
-11516,-6608,-2400,-1488,-425,-103,2025-01-27 14:12:04,0.0
-11880,-6776,-2460,-1447,-44,400,2025-01-27 14:12:04,0.0
-11916,-6844,-2384,-1485,351,1002,2025-01-27 14:12:04,0.0
-11896,-6516,-2892,-1530,634,1579,2025-01-27 14:12:04,0.0
-11548,-6116,-2660,-1601,1125,1699,2025-01-27 14:12:04,0.0
-11516,-5800,-2824,-1577,1713,1648,2025-01-27 14:12:04,0.0
-11764,-5764,-2840,-1613,2263,1486,2025-01-27 14:12:04,0.0
-11852,-5784,-3452,-1548,2745,1284,2025-01-27 14:12:04,0.0
-12596,-6160,-4992,-1614,2849,1044,2025-01-27 14:12:04,0.0
-13964,-6324,-5404,-2221,2694,251,2025-01-27 14:12:04,0.0
-15944,-6472,-3868,-1979,2318,-1173,2025-01-27 14:12:04,0.0
-18964,-5444,-4780,-1570,407,-2095,2025-01-27 14:12:04,0.0
-19892,-6756,-6664,-2782,-1489,-754,2025-01-27 14:12:04,0.0
-18572,-7880,-6400,-3537,-1625,-85,2025-01-27 14:12:04,0.0
-18020,-9068,-6616,-2594,-922,162,2025-01-27 14:12:04,0.0
-18736,-8900,-6244,-1069,-406,1623,2025-01-27 14:12:04,0.0
-17492,-8056,-5940,454,12,3503,2025-01-27 14:12:04,0.0
-15036,-6572,-8396,1194,-98,4276,2025-01-27 14:12:04,0.0
-14432,-5448,-9712,854,-217,4413,2025-01-27 14:12:04,0.0
-13188,-4080,-9144,340,-377,4465,2025-01-27 14:12:04,0.0
-12872,-2308,-7560,102,-536,4983,2025-01-27 14:12:04,0.0
-12536,-1092,-7000,-122,41,5977,2025-01-27 14:12:04,0.0
-11796,-360,-7752,-714,2747,7198,2025-01-27 14:12:04,0.0
-11996,-680,-9240,-1640,5086,7807,2025-01-27 14:12:04,0.0
-12984,-1012,-9472,-2823,5914,8031,2025-01-27 14:12:04,0.0
-13600,-1356,-7888,-3242,5021,7829,2025-01-27 14:12:04,0.0
-13692,-1640,-6564,-3045,2698,7569,2025-01-27 14:12:04,0.0
-13408,-1756,-5844,-2604,-32,7519,2025-01-27 14:12:04,0.0
-12536,-1452,-5176,-2183,-1538,7637,2025-01-27 14:12:04,0.0
-10780,-572,-5644,-2032,-1939,7966,2025-01-27 14:12:04,0.0
-9500,-140,-6036,-2494,-1673,8314,2025-01-27 14:12:04,0.0
-8272,524,-5164,-2887,-1320,8850,2025-01-27 14:12:04,0.0
-7064,568,-4956,-2925,-556,8762,2025-01-27 14:12:04,0.0
-7048,684,-4968,-3161,287,8405,2025-01-27 14:12:04,0.0
-7920,988,-4620,-3096,1508,7927,2025-01-27 14:12:04,0.0
-8452,1376,-4288,-3164,1771,7782,2025-01-27 14:12:04,0.0
-9028,1536,-3900,-3128,1526,7335,2025-01-27 14:12:04,0.0
-8280,1324,-3612,-2731,197,6283,2025-01-27 14:12:04,0.0
-9840,1396,-3940,-2707,-1071,5454,2025-01-27 14:12:04,0.0
-9420,1368,-3732,-2861,-1855,4895,2025-01-27 14:12:04,0.0
-9652,2280,-3508,-2457,-1972,4755,2025-01-27 14:12:04,0.0
-8800,2816,-4248,-1915,-1595,4763,2025-01-27 14:12:05,0.0
-8536,2784,-4228,-1671,-1112,4253,2025-01-27 14:12:05,0.0
-8476,2536,-3904,-1327,-1022,3233,2025-01-27 14:12:05,0.0
-9400,2640,-3408,-757,-1718,2265,2025-01-27 14:12:05,0.0
-10760,2584,-2652,-200,-2039,1465,2025-01-27 14:12:05,0.0
-11756,2656,-1764,329,-2307,1137,2025-01-27 14:12:05,0.0
-10840,3056,-2092,814,-3013,489,2025-01-27 14:12:05,0.0
-10296,2960,-2080,1367,-2835,-885,2025-01-27 14:12:05,0.0
-10480,2736,-2344,1527,-1767,-1789,2025-01-27 14:12:05,0.0
-10872,3156,-2648,1651,-794,-2331,2025-01-27 14:12:05,0.0
-11800,3156,-2652,1589,-227,-2370,2025-01-27 14:12:05,0.0
-12892,2952,-2500,1543,-70,-2265,2025-01-27 14:12:05,0.0
-14432,2888,-3488,1498,331,-1842,2025-01-27 14:12:05,
-15980,2220,-3512,1811,8,-1200,2025-01-27 14:12:05,0.0
-17836,1800,-4644,2197,-803,182,2025-01-27 14:12:05,0.0
-20188,2020,-7000,2085,-999,2849,2025-01-27 14:12:05,0.0
-19496,2628,-6724,2066,-1699,4936,2025-01-27 14:12:05,0.0
-17992,3792,-7112,2251,-3436,4425,2025-01-27 14:12:05,0.0
-18196,4332,-8168,2543,-4667,2358,2025-01-27 14:12:05,0.0
-16760,4744,-10496,1975,-4385,216,2025-01-27 14:12:05,0.0
-13372,4384,-10864,1089,-2449,-2210,2025-01-27 14:12:05,0.0
-12476,3888,-8304,2242,292,-4108,2025-01-27 14:12:05,0.0
-13532,3360,-8112,3025,3434,-4612,2025-01-27 14:12:05,0.0
-12984,1688,-7168,1709,4541,-5179,2025-01-27 14:12:05,0.0
-12932,120,-6448,775,4242,-5874,2025-01-27 14:12:05,0.0
-13148,-372,-7912,597,3930,-6084,2025-01-27 14:12:05,0.0
-13468,744,-8220,835,4640,-5770,2025-01-27 14:12:05,0.0
-12384,1432,-7940,1006,6042,-5758,2025-01-27 14:12:05,0.0
-11780,1368,-6308,644,5990,-6550,2025-01-27 14:12:05,0.0
-11232,976,-4868,694,4407,-7667,2025-01-27 14:12:05,0.0
-10768,-936,-4068,1234,1676,-8688,2025-01-27 14:12:05,0.0
-10868,-2836,-5108,1724,-178,-9097,2025-01-27 14:12:05,0.0
-10972,-3380,-5348,1673,-426,-8158,2025-01-27 14:12:05,0.0
-10788,-3672,-4832,2124,332,-6403,2025-01-27 14:12:05,0.0
-9852,-3320,-4208,2898,1128,-4696,2025-01-27 14:12:05,0.0
-7880,-2688,-5064,3563,1645,-4128,2025-01-27 14:12:05,0.0
-7496,-1796,-4572,3805,1753,-4727,2025-01-27 14:12:05,0.0
-7412,-872,-4588,3833,1681,-5543,2025-01-27 14:12:05,0.0
-8068,-388,-4768,3790,1443,-6513,2025-01-27 14:12:05,0.0
-8864,-1232,-4804,3589,1540,-7058,2025-01-27 14:12:05,0.0
-9808,-1852,-4176,3252,1478,-7014,2025-01-27 14:12:05,0.0
-10252,-2416,-4048,3002,788,-6967,2025-01-27 14:12:05,0.0
-10804,-2864,-4488,2547,-541,-6333,2025-01-27 14:12:05,0.0
-10580,-2528,-3604,2515,-1476,-5355,2025-01-27 14:12:05,0.0
-9804,-2192,-3660,2650,-1924,-5278,2025-01-27 14:12:05,0.0
-10128,-2976,-3796,2096,-1421,-5228,2025-01-27 14:12:05,0.0
-10128,-3504,-3728,2090,117,-4894,2025-01-27 14:12:05,0.0
-10040,-5184,-4544,1696,1271,-4475,2025-01-27 14:12:05,0.0
-10816,-5948,-4224,1304,1831,-4029,2025-01-27 14:12:05,0.0
-12964,-5816,-3868,944,1408,-2742,2025-01-27 14:12:05,0.0
-13512,-4676,-3404,1095,507,-1095,2025-01-27 14:12:05,0.0
-13884,-3852,-3244,1127,-776,-561,2025-01-27 14:12:05,0.0
-13616,-4060,-2888,905,-1993,-357,2025-01-27 14:12:05,0.0
-12728,-4628,-2512,557,-3038,-27,2025-01-27 14:12:05,0.0
-11956,-4796,-2656,388,-3042,633,2025-01-27 14:12:05,0.0
-11408,-4632,-3248,-149,-1939,978,2025-01-27 14:12:05,0.0
-11832,-4536,-2840,-1016,-543,1170,2025-01-27 14:12:05,0.0
-13008,-4804,-2512,-1540,-377,1511,2025-01-27 14:12:05,0.0
-13976,-4368,-3828,-2073,-1102,1851,2025-01-27 14:12:05,0.0
-14032,-4164,-5148,-2635,-2219,2390,2025-01-27 14:12:05,0.0
-13692,-4804,-8916,-2898,-2618,3118,2025-01-27 14:12:06,0.0
-13860,-7748,-9960,-3998,-262,1944,2025-01-27 14:12:06,0.0
-16940,-7940,-7940,-3651,2925,-1171,2025-01-27 14:12:06,0.0
-21504,-5676,-7052,-2958,2623,-2948,2025-01-27 14:12:06,0.0
-25152,-3544,-8588,-2580,-980,-576,2025-01-27 14:12:06,0.0
-22624,-3812,-10836,-2320,-4779,3947,2025-01-27 14:12:06,0.0
-15148,-4636,-11972,-2171,-4867,5736,2025-01-27 14:12:06,0.0
-10504,-4456,-11460,-2560,-946,5261,2025-01-27 14:12:06,0.0
-9384,-3440,-8000,-2630,2764,3878,2025-01-27 14:12:06,0.0
-10140,-2424,-6444,-2094,4163,3179,2025-01-27 14:12:06,0.0
-11576,-1732,-5756,-1242,4810,3664,2025-01-27 14:12:06,0.0
-12496,-1936,-7896,-768,5718,4484,2025-01-27 14:12:06,0.0
-13636,-1752,-8992,-1177,6165,5079,2025-01-27 14:12:06,0.0
-14236,-932,-8208,-2058,5286,6094,2025-01-27 14:12:06,0.0
-13888,-408,-6816,-2324,2917,7167,2025-01-27 14:12:06,0.0
-13212,152,-5680,-2163,332,8036,2025-01-27 14:12:06,0.0
-11760,564,-5392,-2067,-1228,8443,2025-01-27 14:12:06,0.0
-9340,548,-6012,-2615,-1566,8455,2025-01-27 14:12:06,0.0
-7780,368,-4980,-2819,-1469,7985,2025-01-27 14:12:06,0.0
-6672,280,-4388,-2756,-1287,7231,2025-01-27 14:12:06,0.0
-6316,456,-4064,-2685,-834,6611,2025-01-27 14:12:06,0.0
-6776,844,-3704,-2687,-72,6670,2025-01-27 14:12:06,0.0
-7812,1240,-4020,-2589,903,7261,2025-01-27 14:12:06,0.0
-9044,1652,-4400,-2752,1435,8209,2025-01-27 14:12:06,0.0
-9416,2104,-4388,-2927,1186,8666,2025-01-27 14:12:06,0.0
-9268,2144,-3824,-2885,322,8137,2025-01-27 14:12:06,0.0
-9220,2388,-3008,-2641,-1081,6980,2025-01-27 14:12:06,0.0
-8756,2500,-3116,-2103,-2700,5189,2025-01-27 14:12:06,0.0
-10100,1776,-3844,-2233,-3366,4015,2025-01-27 14:12:06,0.0
-10120,1428,-3232,-1883,-3646,3635,2025-01-27 14:12:06,0.0
-10400,1480,-3032,-866,-2912,3504,2025-01-27 14:12:06,0.0
-9424,1760,-4024,-78,-2061,3218,2025-01-27 14:12:06,0.0
-8820,2516,-4712,290,-636,2606,2025-01-27 14:12:06,0.0
-9224,3068,-4372,320,233,1721,2025-01-27 14:12:06,0.0
-9928,3560,-3812,388,951,1008,2025-01-27 14:12:06,0.0
-10796,3644,-4016,607,654,224,2025-01-27 14:12:06,0.0
-12848,3836,-3260,759,184,-494,2025-01-27 14:12:06,0.0
-13336,3896,-2640,869,-1128,-858,2025-01-27 14:12:06,0.0
-13984,3736,-1632,879,-2624,-1415,2025-01-27 14:12:06,0.0
-13320,4024,-1416,647,-3635,-1677,2025-01-27 14:12:06,0.0
-11912,4688,-2108,650,-3108,-1894,2025-01-27 14:12:06,0.0
-11888,4640,-2868,425,-1451,-1911,2025-01-27 14:12:06,0.0
-13924,3676,-3700,825,58,-1889,2025-01-27 14:12:06,0.0
-17868,2848,-4872,569,1317,-1001,2025-01-27 14:12:06,0.0
-20520,2416,-5744,737,2128,644,2025-01-27 14:12:06,0.0
-19524,2572,-7484,1607,108,1528,2025-01-27 14:12:06,0.0
-19240,3868,-9132,1921,-3930,1146,2025-01-27 14:12:06,0.0
-19608,5732,-10124,1865,-5393,616,2025-01-27 14:12:06,0.0
-17720,6996,-11204,767,-2543,-247,2025-01-27 14:12:06,0.0
-13708,4340,-8660,226,1247,-2658,2025-01-27 14:12:06,0.0
-12496,2672,-7244,1927,848,-4618,2025-01-27 14:12:06,0.0
-12392,1824,-8556,3000,951,-5440,2025-01-27 14:12:06,0.0
-11204,380,-7968,2777,1871,-5306,2025-01-27 14:12:06,
-10460,-916,-6616,2931,2814,-5150,2025-01-27 14:12:06,0.0
-10388,-1232,-7308,3061,4095,-5281,2025-01-27 14:12:06,0.0
-10400,-516,-8628,2700,6567,-5940,2025-01-27 14:12:06,0.0
-10588,1168,-7220,2794,7925,-7054,2025-01-27 14:12:06,0.0
-11900,1344,-6764,3024,7708,-8320,2025-01-27 14:12:06,0.0
-12856,1004,-5700,2393,5187,-8704,2025-01-27 14:12:06,0.0
-13124,-244,-4864,1217,1297,-8551,2025-01-27 14:12:06,0.0
-12560,-1136,-4552,682,-1690,-8015,2025-01-27 14:12:06,0.0
-10656,-2244,-4060,1169,-3034,-7311,2025-01-27 14:12:07,0.0
-9248,-2728,-3988,2047,-2898,-6378,2025-01-27 14:12:07,0.0
-8012,-2548,-3924,2618,-1880,-5406,2025-01-27 14:12:07,0.0
-6968,-1728,-3848,2485,-435,-4839,2025-01-27 14:12:07,0.0
-6432,-1224,-4264,1971,595,-4965,2025-01-27 14:12:07,0.0
-6020,-1296,-4984,1395,945,-5871,2025-01-27 14:12:07,0.0
-7896,-2416,-4408,1204,1497,-7452,2025-01-27 14:12:07,0.0
-9508,-3072,-3724,1794,1612,-7951,2025-01-27 14:12:07,0.0
-11068,-3540,-4072,2158,722,-7603,2025-01-27 14:12:07,0.0
-12360,-2788,-4396,2006,-725,-6562,2025-01-27 14:12:07,0.0
-12880,-2124,-5008,1715,-2624,-5468,2025-01-27 14:12:07,0.0
-12692,-1772,-4412,987,-3887,-3930,2025-01-27 14:12:07,0.0
-11224,-1672,-3884,681,-4136,-3339,2025-01-27 14:12:07,0.0
-9168,-2432,-4712,264,-3758,-4057,2025-01-27 14:12:07,0.0
-9912,-3904,-4100,-735,-2693,-4426,2025-01-27 14:12:07,0.0
-10848,-4012,-3128,-963,-919,-3704,2025-01-27 14:12:07,0.0
-11308,-4540,-3168,-947,-264,-2979,2025-01-27 14:12:07,0.0
-12916,-4572,-2492,-986,-289,-2454,2025-01-27 14:12:07,0.0
-13792,-4556,-2876,-906,-748,-1522,2025-01-27 14:12:07,0.0
-13624,-4960,-3816,-1192,-1252,-259,2025-01-27 14:12:07,0.0
-12644,-4484,-3700,-1658,-1225,561,2025-01-27 14:12:07,0.0
-12840,-3956,-3260,-2389,-708,556,2025-01-27 14:12:07,0.0
-13896,-3808,-3204,-2914,-47,615,2025-01-27 14:12:07,0.0
-15648,-3704,-3040,-3583,246,1459,2025-01-27 14:12:07,0.0
-16720,-4124,-3784,-3982,700,2601,2025-01-27 14:12:07,0.0
-16524,-4592,-6364,-4138,558,2925,2025-01-27 14:12:07,0.0
-16420,-5532,-8112,-3884,521,2077,2025-01-27 14:12:07,0.0
-17284,-6068,-7920,-3319,1214,134,2025-01-27 14:12:07,0.0
-19032,-5812,-6360,-2708,1045,-1143,2025-01-27 14:12:07,0.0
-20096,-4880,-6464,-1991,-172,-1027,2025-01-27 14:12:07,0.0
-19828,-4116,-9356,-1713,-2122,482,2025-01-27 14:12:07,0.0
-17220,-3176,-10504,-2251,-3069,2661,2025-01-27 14:12:07,0.0
-11436,-3292,-9392,-2955,858,3139,2025-01-27 14:12:07,0.0
-10528,-2668,-8072,-2929,2430,3585,2025-01-27 14:12:07,0.0
-9536,-1956,-7492,-2661,3300,3868,2025-01-27 14:12:07,0.0
-9412,-1512,-7688,-2301,4000,3847,2025-01-27 14:12:07,0.0
-10836,-1524,-7852,-2070,4997,3768,2025-01-27 14:12:07,0.0
-12700,-1644,-8744,-2436,5652,4269,2025-01-27 14:12:07,0.0
-14020,-1724,-8688,-3002,4997,5336,2025-01-27 14:12:07,0.0
-13984,-1580,-7120,-3225,2702,6490,2025-01-27 14:12:07,0.0
-12212,-740,-5880,-2831,-518,6916,2025-01-27 14:12:07,0.0
-10608,152,-4848,-2090,-2482,6720,2025-01-27 14:12:07,0.0
-8924,620,-5272,-1953,-2892,6089,2025-01-27 14:12:07,0.0
-7508,948,-5804,-2032,-1918,5524,2025-01-27 14:12:07,0.0
-7044,824,-5800,-2138,-661,5291,2025-01-27 14:12:07,0.0
-6864,1056,-5436,-2112,361,5065,2025-01-27 14:12:07,0.0
-7432,1240,-5180,-2153,1204,5109,2025-01-27 14:12:07,0.0
-8964,1120,-4412,-2252,1782,5927,2025-01-27 14:12:07,0.0
-10024,748,-4272,-2085,1512,6957,2025-01-27 14:12:07,0.0
-10808,524,-4020,-1654,754,7989,2025-01-27 14:12:07,0.0
-10648,564,-4376,-1466,-507,8504,2025-01-27 14:12:07,0.0
-10472,604,-3768,-1202,-2263,7858,2025-01-27 14:12:07,0.0
-8948,1000,-3160,-611,-3979,6437,2025-01-27 14:12:07,0.0
-9164,1200,-2792,161,-4649,4983,2025-01-27 14:12:07,0.0
-8280,1156,-2304,1160,-4874,3977,2025-01-27 14:12:07,0.0
-10664,1580,-3528,1393,-3405,3991,2025-01-27 14:12:07,0.0
-9396,2092,-4268,1445,-2130,4622,2025-01-27 14:12:07,0.0
-9136,2688,-3456,1918,-1359,4285,2025-01-27 14:12:07,0.0
-9852,3268,-3344,1809,-462,3250,2025-01-27 14:12:07,0.0
-9980,3764,-3148,1345,-805,2111,2025-01-27 14:12:07,0.0
-10844,4176,-2572,1160,-1195,880,2025-01-27 14:12:08,0.0
-11948,4416,-1904,1071,-812,-385,2025-01-27 14:12:08,0.0
-13520,4652,-1232,718,-1077,-1439,2025-01-27 14:12:08,0.0
-12760,4724,-1644,864,-2030,-2373,2025-01-27 14:12:08,0.0
-13116,4596,-1748,1057,-1885,-2759,2025-01-27 14:12:08,0.0
-14524,3820,-2116,1101,-830,-2480,2025-01-27 14:12:08,0.0
-17528,2416,-2796,829,30,-1357,2025-01-27 14:12:08,0.0
-19952,-152,-3860,1278,-1031,-418,2025-01-27 14:12:08,0.0
-22004,-892,-4948,2621,-3184,790,2025-01-27 14:12:08,0.0
-20772,652,-7960,2651,-4743,2298,2025-01-27 14:12:08,0.0
-18904,4044,-8104,2552,-5343,3617,2025-01-27 14:12:08,0.0
-16664,7280,-8692,2274,-4846,3582,2025-01-27 14:12:08,0.0
-14804,7876,-8948,1657,-472,850,2025-01-27 14:12:08,0.0
-12876,6040,-9688,246,1393,-2990,2025-01-27 14:12:08,0.0
-13324,4180,-7656,-99,728,-4067,2025-01-27 14:12:08,0.0
-11440,2772,-7156,337,1317,-3852,2025-01-27 14:12:08,0.0
-10328,2024,-6964,271,2718,-3591,2025-01-27 14:12:08,0.0
-9152,2148,-7240,-286,5056,-3813,2025-01-27 14:12:08,0.0
-9636,2156,-7572,-413,7427,-5000,2025-01-27 14:12:08,0.0
-11396,2108,-7964,10,9283,-6986,2025-01-27 14:12:08,0.0
-12712,1760,-7616,-98,9401,-8528,2025-01-27 14:12:08,0.0
-13320,988,-6108,-431,7303,-9913,2025-01-27 14:12:08,0.0
-13288,-784,-6008,-558,3152,-10707,2025-01-27 14:12:08,0.0
-12696,-1748,-4792,-401,-601,-10116,2025-01-27 14:12:08,0.0
-11792,-2684,-4356,168,-2309,-8634,2025-01-27 14:12:08,0.0
-10576,-2756,-3968,732,-2201,-6764,2025-01-27 14:12:08,0.0
-8028,-2860,-4204,1179,-1455,-5187,2025-01-27 14:12:08,0.0
-5572,-2576,-3924,1603,3,-4706,2025-01-27 14:12:08,0.0
-4944,-2132,-4140,1985,999,-5467,2025-01-27 14:12:08,0.0
-5732,-1340,-4948,1895,1939,-6258,2025-01-27 14:12:08,0.0
-7604,-548,-5164,1401,2911,-6380,2025-01-27 14:12:08,0.0
-8644,-444,-4792,1128,3513,-6380,2025-01-27 14:12:08,
-9896,-904,-4384,894,3410,-6476,2025-01-27 14:12:08,0.0
-10880,-1072,-3740,829,2283,-6750,2025-01-27 14:12:08,0.0
-11884,-1928,-4176,623,216,-6659,2025-01-27 14:12:08,0.0
-12460,-2224,-4008,730,-1898,-5793,2025-01-27 14:12:08,0.0
-12024,-2836,-4840,985,-2815,-5092,2025-01-27 14:12:08,0.0
-11836,-3360,-5012,703,-2652,-4255,2025-01-27 14:12:08,0.0
-11172,-3340,-4532,534,-1746,-3859,2025-01-27 14:12:08,0.0
-11016,-3584,-4216,193,-1072,-3955,2025-01-27 14:12:08,0.0
-11620,-3208,-3932,-94,-406,-3797,2025-01-27 14:12:08,0.0
-12968,-2860,-3048,89,-148,-3438,2025-01-27 14:12:08,0.0
-13748,-3336,-3484,281,-606,-3095,2025-01-27 14:12:08,0.0
-13736,-4388,-3608,22,-1652,-2483,2025-01-27 14:12:08,0.0
-13608,-4444,-3404,22,-2238,-1796,2025-01-27 14:12:08,0.0
-13496,-4120,-3212,-239,-2448,-851,2025-01-27 14:12:08,0.0
-13024,-3236,-3304,-809,-1514,-99,2025-01-27 14:12:08,0.0
-12464,-3124,-3568,-1548,-1049,343,2025-01-27 14:12:08,0.0
-12824,-3452,-3320,-2342,-810,633,2025-01-27 14:12:08,0.0
-13664,-3452,-3836,-2928,-670,1223,2025-01-27 14:12:08,0.0
-14452,-3484,-5680,-3279,-735,1792,2025-01-27 14:12:08,0.0
-15200,-4440,-8452,-3854,-332,1239,2025-01-27 14:12:08,0.0
-16364,-5648,-8924,-3704,980,-308,2025-01-27 14:12:08,0.0
-18980,-5468,-8280,-2913,1617,-2286,2025-01-27 14:12:08,0.0
-21440,-3952,-7724,-1924,-716,-1108,2025-01-27 14:12:08,0.0
-20148,-4296,-10256,-1243,-3268,2330,2025-01-27 14:12:08,0.0
-15592,-4660,-10724,-1491,-3472,4183,2025-01-27 14:12:08,0.0
-12184,-4448,-10180,-1746,-821,3929,2025-01-27 14:12:08,0.0
-10588,-2540,-8240,-1706,2015,3316,2025-01-27 14:12:08,0.0
-10036,-828,-8252,-1569,2904,2980,2025-01-27 14:12:08,0.0
-11420,100,-8528,-1592,3606,3132,2025-01-27 14:12:08,0.0
-13460,-316,-9248,-1937,4670,3822,2025-01-27 14:12:09,0.0
-14472,-1248,-9380,-2193,5807,4484,2025-01-27 14:12:09,0.0
-15760,-1776,-8236,-2293,6210,5567,2025-01-27 14:12:09,0.0
-15264,-1940,-6672,-2114,4236,6880,2025-01-27 14:12:09,0.0
-13608,-1824,-5380,-1614,1208,7662,2025-01-27 14:12:09,0.0
-11952,-1328,-5372,-1177,-1787,8037,2025-01-27 14:12:09,0.0
-10444,-548,-5824,-1312,-2755,8448,2025-01-27 14:12:09,0.0
-8276,340,-5336,-1718,-2656,8907,2025-01-27 14:12:09,0.0
-6556,960,-4252,-1596,-1729,8612,2025-01-27 14:12:09,0.0
-4940,1268,-3860,-1418,-507,7815,2025-01-27 14:12:09,0.0
-5112,1428,-3916,-1444,708,7049,2025-01-27 14:12:09,0.0
-6064,1376,-4428,-1602,2066,6614,2025-01-27 14:12:09,0.0
-7404,1132,-5084,-1787,3076,6799,2025-01-27 14:12:09,0.0
-9524,852,-4848,-1887,3166,7626,2025-01-27 14:12:09,0.0
-10292,1160,-4704,-1961,1836,8607,2025-01-27 14:12:09,0.0
-9996,1984,-4056,-1799,-68,8377,2025-01-27 14:12:09,0.0
-9464,2912,-3432,-1372,-2115,6434,2025-01-27 14:12:09,0.0
-9464,3032,-3640,-1373,-3349,4572,2025-01-27 14:12:09,0.0
-9868,2456,-3036,-1324,-3831,3579,2025-01-27 14:12:09,0.0
-9812,2212,-4344,-1013,-3314,3104,2025-01-27 14:12:09,0.0
-10144,2300,-3840,-782,-2525,2957,2025-01-27 14:12:09,0.0
-9484,2452,-4460,-322,-1462,2517,2025-01-27 14:12:09,0.0
-10272,2872,-4224,-318,-525,2215,2025-01-27 14:12:09,0.0
-10352,3396,-3920,27,-503,1772,2025-01-27 14:12:09,0.0
-11316,3252,-3476,483,-1070,1211,2025-01-27 14:12:09,0.0
-12160,3032,-2764,619,-2002,517,2025-01-27 14:12:09,0.0
-13184,3604,-1380,862,-3333,-287,2025-01-27 14:12:09,0.0
-12684,4260,-1204,963,-4220,-999,2025-01-27 14:12:09,0.0
-11212,4632,-1576,1096,-3678,-1492,2025-01-27 14:12:09,0.0
-11856,4628,-1772,1380,-1913,-1527,2025-01-27 14:12:09,0.0
-13296,4296,-2744,1504,-792,-1269,2025-01-27 14:12:09,0.0
-15296,3164,-4624,1380,-524,-1166,2025-01-27 14:12:09,0.0
-19620,2116,-6028,1829,-918,-267,2025-01-27 14:12:09,0.0
-23064,1468,-7692,1861,-1608,2266,2025-01-27 14:12:09,0.0
-20988,2240,-9368,628,-3699,3823,2025-01-27 14:12:09,0.0
-16668,5164,-8996,227,-5082,2994,2025-01-27 14:12:09,0.0
-14068,7864,-8560,1326,-3122,715,2025-01-27 14:12:09,0.0
-12080,7744,-9568,1417,49,-2356,2025-01-27 14:12:09,0.0
-11976,5488,-9096,718,1817,-4711,2025-01-27 14:12:09,0.0
-12776,4024,-7660,957,2676,-5528,2025-01-27 14:12:09,0.0
-12816,2124,-7488,1428,3297,-5582,2025-01-27 14:12:09,0.0
-12420,624,-8108,1428,4082,-5509,2025-01-27 14:12:09,0.0
-11920,-128,-8604,1455,5331,-6045,2025-01-27 14:12:09,0.0
-11044,88,-8752,1773,6857,-7080,2025-01-27 14:12:09,0.0
-11684,1008,-7644,2122,8127,-8034,2025-01-27 14:12:09,0.0
-11564,1436,-7100,2379,7289,-8533,2025-01-27 14:12:09,0.0
-11788,1688,-6980,1726,5638,-8869,2025-01-27 14:12:09,0.0
-11508,1544,-5444,804,1911,-8857,2025-01-27 14:12:09,0.0
-11884,724,-4404,410,-890,-8111,2025-01-27 14:12:09,0.0
-10540,-852,-4040,533,-1864,-6593,2025-01-27 14:12:09,0.0
-8056,-2056,-3736,995,-1364,-5858,2025-01-27 14:12:09,0.0
-6156,-2756,-4200,1877,-349,-5981,2025-01-27 14:12:09,0.0
-5756,-3288,-4268,2914,749,-6426,2025-01-27 14:12:09,0.0
-5980,-3352,-4236,3493,1672,-6527,2025-01-27 14:12:09,0.0
-6808,-2840,-4500,3845,2321,-6728,2025-01-27 14:12:09,0.0
-7624,-2720,-5012,3860,2638,-7152,2025-01-27 14:12:09,0.0
-9904,-2832,-4496,3794,2613,-7036,2025-01-27 14:12:09,0.0
-11396,-2480,-4764,3896,2297,-6009,2025-01-27 14:12:09,0.0
-12204,-1832,-4932,3763,897,-5366,2025-01-27 14:12:09,0.0
-13128,-1260,-5312,2920,-1190,-4740,2025-01-27 14:12:09,0.0
-14040,-1088,-4884,2079,-2651,-3731,2025-01-27 14:12:10,0.0
-12896,-1572,-4744,1481,-3759,-2767,2025-01-27 14:12:10,0.0
-11156,-2116,-4484,1271,-4387,-2999,2025-01-27 14:12:10,0.0
-10408,-3232,-4876,549,-4398,-3682,2025-01-27 14:12:10,0.0
-10736,-3424,-3916,183,-3351,-3531,2025-01-27 14:12:10,0.0
-11052,-3644,-3572,114,-1019,-3040,2025-01-27 14:12:10,0.0
-11824,-3828,-3168,-161,513,-2676,2025-01-27 14:12:10,0.0
-12928,-3992,-2540,-356,596,-2367,2025-01-27 14:12:10,0.0
-13272,-4032,-2760,-362,-30,-1726,2025-01-27 14:12:10,0.0
-12888,-4640,-2380,-275,-893,-1295,2025-01-27 14:12:10,0.0
-12700,-4972,-3540,-646,-916,-979,2025-01-27 14:12:10,
-12936,-5480,-4868,-1528,-17,-768,2025-01-27 14:12:10,0.0
-13340,-5260,-5212,-2801,96,-794,2025-01-27 14:12:10,0.0
-14672,-4024,-4960,-3555,-1333,-892,2025-01-27 14:12:10,0.0
-16100,-2780,-4448,-3924,-2524,-499,2025-01-27 14:12:10,0.0
-16480,-2428,-4940,-3924,-2946,-221,2025-01-27 14:12:10,0.0
-16904,-2524,-6864,-4642,-2884,-112,2025-01-27 14:12:10,0.0
-17464,-3576,-7736,-5075,-1965,-1349,2025-01-27 14:12:10,0.0
-18256,-5744,-9608,-4275,-1263,-3589,2025-01-27 14:12:10,0.0
-20940,-7888,-9380,-3147,-2342,-3935,2025-01-27 14:12:10,0.0
-23752,-9276,-7948,-2422,-1686,-2103,2025-01-27 14:12:10,0.0
-20160,-6268,-7260,-1597,-4013,2210,2025-01-27 14:12:10,0.0
-15956,-3828,-8460,-1009,-5739,5230,2025-01-27 14:12:10,0.0
-10844,-2248,-8252,-1597,-3901,6561,2025-01-27 14:12:10,0.0
-7772,-1364,-7692,-1956,-1453,6103,2025-01-27 14:12:10,0.0
-6892,-36,-7080,-2015,2110,5226,2025-01-27 14:12:10,0.0
-8288,-120,-7600,-2487,5234,4670,2025-01-27 14:12:10,0.0
-10308,-1100,-7648,-3297,6568,4542,2025-01-27 14:12:10,0.0
-12980,-1688,-6956,-3312,6436,4837,2025-01-27 14:12:10,0.0
-15168,-1752,-6244,-2856,5143,5443,2025-01-27 14:12:10,0.0
-15592,-980,-4808,-2309,2155,6447,2025-01-27 14:12:10,0.0
-13588,-224,-3816,-1616,-1079,7190,2025-01-27 14:12:10,0.0
-10488,212,-3552,-1314,-3826,7251,2025-01-27 14:12:10,0.0
-7404,-328,-3920,-1643,-5327,7054,2025-01-27 14:12:10,0.0
-5824,-196,-3276,-1663,-4677,7068,2025-01-27 14:12:10,0.0
-4956,56,-2576,-1136,-2459,7163,2025-01-27 14:12:10,0.0
-4740,480,-2684,-489,458,6881,2025-01-27 14:12:10,0.0
-5024,784,-3992,-299,3177,6181,2025-01-27 14:12:10,0.0
-7252,1724,-4408,-491,4268,5054,2025-01-27 14:12:10,0.0
-9888,2360,-4236,-1050,4069,4687,2025-01-27 14:12:10,0.0
-12224,2496,-4216,-1505,3070,5196,2025-01-27 14:12:10,0.0
-12772,2180,-4488,-1888,1036,6163,2025-01-27 14:12:10,0.0
-12744,2196,-4068,-1741,-1334,6603,2025-01-27 14:12:10,0.0
-11932,1788,-3272,-1226,-3112,6133,2025-01-27 14:12:10,0.0
-12280,1428,-3548,-1069,-3768,5216,2025-01-27 14:12:10,0.0
-11124,1176,-2468,-762,-4560,4650,2025-01-27 14:12:10,0.0
-10404,1320,-3344,-120,-4305,4140,2025-01-27 14:12:10,0.0
-10560,1892,-2436,165,-3302,4157,2025-01-27 14:12:10,0.0
-9256,2544,-2168,856,-2339,3915,2025-01-27 14:12:10,0.0
-9384,2656,-2792,1194,-430,3053,2025-01-27 14:12:10,0.0
-9564,2892,-2952,1207,1239,2270,2025-01-27 14:12:10,0.0
-11004,3152,-2884,1237,1395,1528,2025-01-27 14:12:10,0.0
-12232,3480,-2092,1480,797,935,2025-01-27 14:12:10,0.0
-13164,3712,-1376,1813,-321,356,2025-01-27 14:12:10,0.0
-14060,3512,-720,1994,-1934,-110,2025-01-27 14:12:10,0.0
-13652,3900,-964,1997,-3300,-77,2025-01-27 14:12:10,0.0
-12332,4128,-1528,1837,-2640,-170,2025-01-27 14:12:10,0.0
-13536,3908,-1368,1812,-681,-208,2025-01-27 14:12:10,0.0
-15316,3196,-2340,1669,887,29,2025-01-27 14:12:10,0.0
-18224,2552,-2936,1576,972,774,2025-01-27 14:12:10,0.0
-20012,2048,-3996,1911,-619,1774,2025-01-27 14:12:10,0.0
-21636,2004,-5888,2312,-2110,3186,2025-01-27 14:12:11,0.0
-19776,2968,-7832,1683,-3044,4059,2025-01-27 14:12:11,0.0
-17448,7580,-7676,1567,-2949,3453,2025-01-27 14:12:11,0.0
-17220,10332,-7264,2386,-443,2289,2025-01-27 14:12:11,0.0
-14424,7960,-8892,1759,999,-685,2025-01-27 14:12:11,0.0
-13268,5352,-8416,-41,-184,-3699,2025-01-27 14:12:11,0.0
-11052,2848,-7624,-2,-1065,-5839,2025-01-27 14:12:11,0.0
-9672,1812,-7292,588,-15,-7147,2025-01-27 14:12:11,0.0
-9048,868,-7592,754,3282,-7300,2025-01-27 14:12:11,0.0
-9496,112,-7700,1042,6483,-6960,2025-01-27 14:12:11,0.0
-11348,-264,-7364,1890,8335,-6891,2025-01-27 14:12:11,0.0
-13084,4,-7600,2785,8515,-6668,2025-01-27 14:12:11,0.0
-14644,-76,-7488,2660,8175,-6567,2025-01-27 14:12:11,0.0
-14408,792,-5544,2232,5853,-6564,2025-01-27 14:12:11,0.0
-15264,928,-3468,1521,937,-6136,2025-01-27 14:12:11,0.0
-14480,1072,-3724,1329,-2862,-4850,2025-01-27 14:12:11,0.0
-12576,580,-4600,1343,-4866,-3498,2025-01-27 14:12:11,0.0
-10004,-444,-4128,1602,-5253,-2223,2025-01-27 14:12:11,0.0
-5756,-2032,-3200,2565,-4260,-2243,2025-01-27 14:12:11,0.0
-4088,-3100,-2392,3264,-2977,-3476,2025-01-27 14:12:11,0.0
-4476,-3716,-2276,4100,-1124,-4856,2025-01-27 14:12:11,0.0
-5964,-3336,-2392,4990,565,-6030,2025-01-27 14:12:11,0.0
-7600,-2780,-3444,5848,1361,-6990,2025-01-27 14:12:11,0.0
-10132,-2244,-4692,5672,1546,-7341,2025-01-27 14:12:11,0.0
-12316,-1216,-5140,4925,808,-6821,2025-01-27 14:12:11,0.0
-13612,584,-4524,3881,-1608,-6203,2025-01-27 14:12:11,0.0
-13680,916,-4728,2708,-4972,-5705,2025-01-27 14:12:11,0.0
-12720,148,-4652,1628,-5871,-4963,2025-01-27 14:12:11,0.0
-10240,-1264,-4656,595,-4785,-4678,2025-01-27 14:12:11,0.0
-9140,-2624,-4240,-110,-3104,-5302,2025-01-27 14:12:11,0.0
-9256,-3796,-3908,-788,-1425,-5707,2025-01-27 14:12:11,0.0
-10884,-3632,-2840,-599,330,-5478,2025-01-27 14:12:11,0.0
-11708,-3664,-2844,-120,1215,-5178,2025-01-27 14:12:11,0.0
-12972,-4112,-3112,-404,994,-4705,2025-01-27 14:12:11,0.0
-13800,-4316,-2688,-540,438,-3873,2025-01-27 14:12:11,0.0
-14016,-4456,-1760,-324,-381,-2873,2025-01-27 14:12:11,0.0
-13576,-4048,-2408,-171,-994,-2154,2025-01-27 14:12:11,0.0
-12928,-3488,-2464,-361,-1423,-1495,2025-01-27 14:12:11,0.0
-11824,-3316,-3332,-994,-921,-713,2025-01-27 14:12:11,0.0
-11744,-3072,-3396,-2105,543,-237,2025-01-27 14:12:11,0.0
-12400,-1668,-6536,-2214,3980,2529,2025-01-27 14:12:11,0.0
-12368,-2876,-6952,-2132,3994,3866,2025-01-27 14:12:11,0.0
-12260,-3344,-6144,-1750,3502,4572,2025-01-27 14:12:11,0.0
-11984,-3184,-5324,-985,2581,5138,2025-01-27 14:12:11,0.0
-11436,-2832,-4172,-199,978,5609,2025-01-27 14:12:12,0.0
-10308,-1556,-3580,646,-1192,6171,2025-01-27 14:12:12,0.0
-9344,-84,-4440,903,-2023,6488,2025-01-27 14:12:12,0.0
-8648,1424,-5016,602,-2046,6606,2025-01-27 14:12:12,0.0
-7412,2796,-5680,-320,-1848,6484,2025-01-27 14:12:12,0.0
-6620,3712,-5964,-1565,-1657,5912,2025-01-27 14:12:12,
