acceleration_x,acceleration_y,acceleration_z,gyroscope_x,gyroscope_y,gyroscope_z,timestamp,label
-11912,-888,-6196,-221,206,-210,2025-01-27 14:10:34,0.0
-11920,-872,-6200,-214,266,-204,2025-01-27 14:10:34,0.0
-12032,-860,-5992,-230,261,-210,2025-01-27 14:10:34,0.0
-11992,-852,-6096,-239,240,-217,2025-01-27 14:10:34,0.0
-11928,-848,-6168,-290,186,-216,2025-01-27 14:10:34,0.0
-11884,-860,-6088,-273,184,-207,2025-01-27 14:10:34,0.0
-11896,-968,-6176,-290,176,-195,2025-01-27 14:10:34,0.0
-12032,-896,-6164,-229,150,-221,2025-01-27 14:10:35,0.0
-11984,-968,-6156,-236,160,-186,2025-01-27 14:10:35,0.0
-11976,-936,-6068,-236,190,-212,2025-01-27 14:10:35,0.0
-12004,-844,-6012,-223,132,-201,2025-01-27 14:10:35,0.0
-11928,-940,-6004,-244,139,-178,2025-01-27 14:10:35,0.0
-11860,-948,-6136,-224,176,-182,2025-01-27 14:10:35,0.0
-11944,-908,-5916,-225,273,-214,2025-01-27 14:10:35,0.0
-11996,-848,-6100,-201,311,-190,2025-01-27 14:10:35,0.0
-11900,-840,-5968,-182,301,-208,2025-01-27 14:10:35,0.0
-12056,-912,-6200,-183,225,-201,2025-01-27 14:10:35,0.0
-11964,-1056,-5860,-137,249,-189,2025-01-27 14:10:35,0.0
-12024,-968,-5988,-165,286,-174,2025-01-27 14:10:35,0.0
-12056,-888,-5964,-159,261,-170,2025-01-27 14:10:35,0.0
-12068,-884,-6068,-183,248,-195,2025-01-27 14:10:35,0.0
-11948,-884,-6140,-180,226,-190,2025-01-27 14:10:35,0.0
-12016,-936,-6072,-240,208,-210,2025-01-27 14:10:35,0.0
-12024,-848,-6184,-224,159,-215,2025-01-27 14:10:35,0.0
-11956,-848,-6240,-216,136,-219,2025-01-27 14:10:35,0.0
-11996,-792,-6196,-280,112,-219,2025-01-27 14:10:35,0.0
-11892,-896,-6108,-268,79,-222,2025-01-27 14:10:35,0.0
-11760,-876,-6196,-279,161,-213,2025-01-27 14:10:35,0.0
-11912,-884,-6216,-278,151,-215,2025-01-27 14:10:35,0.0
-11904,-900,-6032,-223,187,-220,2025-01-27 14:10:35,0.0
-11848,-892,-6164,-256,203,-204,2025-01-27 14:10:35,0.0
-11976,-1012,-5936,-199,215,-195,2025-01-27 14:10:35,0.0
-11976,-1012,-6064,-208,210,-213,2025-01-27 14:10:35,0.0
-11908,-904,-6036,-201,230,-199,2025-01-27 14:10:35,0.0
-11908,-856,-6120,-202,249,-191,2025-01-27 14:10:35,0.0
-12000,-932,-6148,-185,216,-173,2025-01-27 14:10:35,0.0
-12012,-888,-6212,-181,166,-166,2025-01-27 14:10:35,0.0
-11964,-936,-6072,-171,170,-191,2025-01-27 14:10:35,0.0
-11980,-928,-6216,-164,224,-183,2025-01-27 14:10:35,0.0
-12060,-900,-6160,-172,207,-166,2025-01-27 14:10:35,0.0
-11988,-968,-6148,-181,207,-182,2025-01-27 14:10:35,0.0
-11924,-972,-6212,-139,212,-164,2025-01-27 14:10:35,0.0
-11968,-1000,-6268,-107,163,-142,2025-01-27 14:10:35,0.0
-11964,-884,-6212,-127,185,-123,2025-01-27 14:10:35,0.0
-11900,-848,-6112,-154,205,-185,2025-01-27 14:10:35,0.0
-12024,-856,-6240,-121,268,-184,2025-01-27 14:10:35,0.0
-11936,-928,-6052,-154,282,-178,2025-01-27 14:10:35,0.0
-11900,-920,-6232,-96,88,-149,2025-01-27 14:10:35,0.0
-11844,-944,-6156,-70,159,-151,2025-01-27 14:10:35,0.0
-11832,-816,-5988,-115,203,-181,2025-01-27 14:10:35,0.0
-11936,-900,-6008,-83,254,-179,2025-01-27 14:10:35,0.0
-12000,-812,-5988,-105,269,-176,2025-01-27 14:10:35,0.0
-12076,-860,-6120,-84,213,-139,2025-01-27 14:10:35,0.0
-12064,-900,-6188,-74,250,-70,2025-01-27 14:10:35,0.0
-12012,-796,-6148,15,251,93,2025-01-27 14:10:35,0.0
-11868,-688,-6108,-44,451,97,2025-01-27 14:10:35,0.0
-11844,-612,-6136,-82,573,136,2025-01-27 14:10:35,0.0
-11864,-676,-6148,-130,582,172,2025-01-27 14:10:35,0.0
-11936,-904,-6364,-148,570,109,2025-01-27 14:10:35,0.0
-11964,-708,-6316,-77,487,176,2025-01-27 14:10:35,0.0
-11912,-620,-6052,-92,363,151,2025-01-27 14:10:35,0.0
-11748,-564,-6064,-102,207,13,2025-01-27 14:10:35,0.0
-11772,-740,-6336,-168,190,-86,2025-01-27 14:10:35,0.0
-11804,-656,-6176,-63,188,-136,2025-01-27 14:10:35,0.0
-11672,-776,-6168,-31,274,-250,2025-01-27 14:10:35,0.0
-11704,-844,-6340,23,387,-302,2025-01-27 14:10:36,0.0
-11896,-784,-6344,11,414,-356,2025-01-27 14:10:36,0.0
-12084,-752,-6372,-31,311,-364,2025-01-27 14:10:36,0.0
-12092,-632,-6256,-53,198,-307,2025-01-27 14:10:36,0.0
-12008,-660,-6168,-95,127,-210,2025-01-27 14:10:36,0.0
-11952,-908,-6280,-128,88,-213,2025-01-27 14:10:36,0.0
-11904,-892,-6092,-127,79,-201,2025-01-27 14:10:36,0.0
-11808,-836,-6340,-194,203,-194,2025-01-27 14:10:36,0.0
-11820,-684,-6432,-214,185,-133,2025-01-27 14:10:36,0.0
-12040,-468,-6308,-276,265,33,2025-01-27 14:10:36,0.0
-11852,-456,-6544,-346,408,23,2025-01-27 14:10:36,0.0
-11912,-364,-6620,-550,458,-59,2025-01-27 14:10:36,0.0
-12020,-156,-6556,-668,353,107,2025-01-27 14:10:36,0.0
-11868,80,-6536,-681,217,330,2025-01-27 14:10:36,0.0
-11740,72,-6952,-871,197,275,2025-01-27 14:10:36,0.0
-11908,124,-6940,-1027,239,258,2025-01-27 14:10:36,0.0
-11980,72,-6564,-1116,330,306,2025-01-27 14:10:36,0.0
-12012,116,-6500,-1167,267,277,2025-01-27 14:10:36,0.0
-11848,16,-6384,-1237,31,117,2025-01-27 14:10:36,0.0
-12004,76,-6684,-1291,-148,9,2025-01-27 14:10:36,0.0
-12004,156,-6708,-1308,-360,-45,2025-01-27 14:10:36,0.0
-11956,352,-6896,-1328,-635,-75,2025-01-27 14:10:36,0.0
-11764,348,-6704,-1423,-921,-222,2025-01-27 14:10:36,0.0
-11328,296,-6380,-1437,-1262,-520,2025-01-27 14:10:36,0.0
-11192,340,-6340,-1430,-1407,-839,2025-01-27 14:10:36,0.0
-11152,500,-6232,-1391,-1321,-1058,2025-01-27 14:10:36,0.0
-11228,568,-6308,-1529,-989,-1310,2025-01-27 14:10:36,0.0
-11536,720,-6080,-1701,-719,-1502,2025-01-27 14:10:36,0.0
-11812,860,-6144,-1881,-901,-1729,2025-01-27 14:10:36,0.0
-12152,472,-5532,-1918,-1205,-2238,2025-01-27 14:10:36,0.0
-12492,56,-5400,-1981,-1661,-2640,2025-01-27 14:10:36,0.0
-12576,-568,-5572,-2042,-2170,-2917,2025-01-27 14:10:36,0.0
-12576,-1112,-5448,-1867,-2120,-3048,2025-01-27 14:10:36,0.0
-12172,-1344,-5664,-1438,-1841,-3138,2025-01-27 14:10:36,0.0
-11896,-1092,-5708,-1123,-1358,-3299,2025-01-27 14:10:36,
-12116,-1364,-5364,-778,-421,-3348,2025-01-27 14:10:36,0.0
-11972,-1728,-5408,-205,274,-3288,2025-01-27 14:10:36,0.0
-12072,-2052,-5544,245,475,-3250,2025-01-27 14:10:36,0.0
-12448,-2548,-5628,632,395,-3162,2025-01-27 14:10:36,0.0
-12552,-2972,-5824,1157,361,-3134,2025-01-27 14:10:36,0.0
-12732,-2900,-5908,1681,535,-3029,2025-01-27 14:10:36,0.0
-12612,-2928,-5268,2191,403,-2865,2025-01-27 14:10:36,0.0
-12572,-3140,-4488,2664,-5,-2394,2025-01-27 14:10:36,0.0
-12104,-3368,-4332,2942,-335,-2028,2025-01-27 14:10:36,0.0
-11780,-3836,-4868,3052,9,-1668,2025-01-27 14:10:36,0.0
-12016,-4116,-4704,3037,478,-1582,2025-01-27 14:10:36,0.0
-12540,-3820,-4516,3314,903,-1784,2025-01-27 14:10:36,0.0
-13208,-3184,-4400,3535,1020,-2365,2025-01-27 14:10:36,0.0
-13708,-2496,-4504,3355,288,-3045,2025-01-27 14:10:36,0.0
-14132,-1860,-4380,2922,-908,-3471,2025-01-27 14:10:36,0.0
-13828,-1872,-4372,2493,-2045,-3417,2025-01-27 14:10:36,0.0
-12972,-2528,-4544,2011,-2572,-3136,2025-01-27 14:10:36,0.0
-11800,-3648,-4632,1811,-2210,-3038,2025-01-27 14:10:36,0.0
-10812,-4760,-4708,1775,-1065,-3084,2025-01-27 14:10:36,0.0
-10640,-4824,-4484,1876,27,-3305,2025-01-27 14:10:36,0.0
-10980,-4296,-4488,2011,667,-3739,2025-01-27 14:10:36,0.0
-11692,-3872,-4504,1933,788,-4248,2025-01-27 14:10:36,0.0
-12596,-3832,-4108,1704,185,-4434,2025-01-27 14:10:36,0.0
-13104,-4136,-4144,1409,-484,-4183,2025-01-27 14:10:36,0.0
-12956,-4232,-3684,1325,-1215,-3850,2025-01-27 14:10:36,0.0
-12464,-4468,-3856,1513,-1691,-3710,2025-01-27 14:10:36,0.0
-12108,-4904,-3768,1394,-1716,-3364,2025-01-27 14:10:36,0.0
-12004,-5456,-3204,1121,-1291,-2902,2025-01-27 14:10:36,0.0
-11380,-5024,-3648,1031,-842,-2912,2025-01-27 14:10:37,0.0
-12272,-4268,-3304,685,-854,-3050,2025-01-27 14:10:37,0.0
-12960,-4216,-3232,122,-910,-2509,2025-01-27 14:10:37,0.0
-13188,-3824,-2284,-25,-748,-1879,2025-01-27 14:10:37,0.0
-12448,-3860,-2280,86,-1526,-1604,2025-01-27 14:10:37,0.0
-11876,-4600,-2412,17,-1371,-1265,2025-01-27 14:10:37,0.0
-11324,-4828,-2276,-360,-509,-838,2025-01-27 14:10:37,0.0
-10792,-5364,-2564,-925,120,-420,2025-01-27 14:10:37,0.0
-11520,-5276,-2552,-1639,584,44,2025-01-27 14:10:37,0.0
-12300,-4616,-2000,-2021,661,433,2025-01-27 14:10:37,0.0
-12696,-4528,-2088,-1926,231,767,2025-01-27 14:10:37,0.0
-12284,-4700,-2684,-2091,54,1098,2025-01-27 14:10:37,0.0
-12196,-5360,-3152,-2580,312,1369,2025-01-27 14:10:37,0.0
-12040,-5764,-3084,-2703,621,1554,2025-01-27 14:10:37,0.0
-12228,-5744,-2708,-2603,959,1579,2025-01-27 14:10:37,0.0
-12524,-5448,-3040,-2544,1071,1410,2025-01-27 14:10:37,0.0
-12948,-5236,-3504,-2832,844,1038,2025-01-27 14:10:37,0.0
-14224,-4784,-4416,-3601,99,981,2025-01-27 14:10:37,0.0
-14408,-5744,-7228,-3923,-997,1846,2025-01-27 14:10:37,0.0
-13832,-7724,-10000,-4351,-2416,777,2025-01-27 14:10:37,0.0
-15880,-9196,-6976,-4232,-803,-3207,2025-01-27 14:10:37,0.0
-20148,-6332,-2924,-2364,-209,-5163,2025-01-27 14:10:37,0.0
-22644,-4772,-6772,-2997,-2838,-2611,2025-01-27 14:10:37,0.0
-19616,-4252,-7904,-3813,-4624,773,2025-01-27 14:10:37,0.0
-15236,-5084,-10144,-3364,-4314,2517,2025-01-27 14:10:37,0.0
-12060,-5624,-10060,-3641,-396,3174,2025-01-27 14:10:37,0.0
-11900,-5408,-8148,-4045,3499,2881,2025-01-27 14:10:37,0.0
-13036,-5232,-5908,-4546,4844,2760,2025-01-27 14:10:37,0.0
-14272,-4324,-3760,-3894,3831,3243,2025-01-27 14:10:37,0.0
-15184,-3416,-3064,-2536,2487,4265,2025-01-27 14:10:37,0.0
-14860,-2340,-5236,-1681,1550,5763,2025-01-27 14:10:37,0.0
-14288,-1548,-6652,-1497,1749,6764,2025-01-27 14:10:37,0.0
-13436,-1704,-7396,-1786,2465,7484,2025-01-27 14:10:37,0.0
-12232,-2144,-6596,-1723,2017,7587,2025-01-27 14:10:37,0.0
-11688,-1904,-6044,-1414,1108,7179,2025-01-27 14:10:37,0.0
-11312,-1552,-6072,-1306,593,6737,2025-01-27 14:10:37,0.0
-11064,-384,-5768,-1254,786,6450,2025-01-27 14:10:37,0.0
-10800,348,-6068,-1457,969,6217,2025-01-27 14:10:37,0.0
-10920,1016,-6196,-2032,840,6129,2025-01-27 14:10:37,0.0
-10432,1252,-5940,-2572,399,5972,2025-01-27 14:10:37,0.0
-10452,992,-5600,-2943,32,6131,2025-01-27 14:10:37,0.0
-9928,584,-5424,-3116,54,6505,2025-01-27 14:10:37,0.0
-9888,300,-4712,-3211,-56,6996,2025-01-27 14:10:37,0.0
-9636,-36,-3960,-3117,-300,7418,2025-01-27 14:10:37,0.0
-9384,-84,-3160,-2583,-737,7540,2025-01-27 14:10:37,0.0
-8236,40,-3192,-2009,-1282,7175,2025-01-27 14:10:37,0.0
-7708,368,-2680,-1317,-2035,6294,2025-01-27 14:10:37,0.0
-8536,460,-3476,-1050,-2118,5768,2025-01-27 14:10:37,0.0
-8088,888,-2452,-457,-2150,5730,2025-01-27 14:10:37,0.0
-8452,1392,-3480,188,-1588,5189,2025-01-27 14:10:37,0.0
-9664,1876,-4340,-26,-281,4982,2025-01-27 14:10:37,0.0
-9948,1732,-3660,-2,1013,4828,2025-01-27 14:10:37,0.0
-10472,1860,-3100,460,950,4499,2025-01-27 14:10:37,0.0
-10788,2212,-2856,1142,-75,3707,2025-01-27 14:10:37,0.0
-11048,2584,-3100,1437,-1485,2943,2025-01-27 14:10:37,0.0
-11288,3224,-3100,1406,-2465,2263,2025-01-27 14:10:37,0.0
-11876,3808,-2820,1329,-3316,1510,2025-01-27 14:10:37,0.0
-11536,3736,-2120,1490,-3706,669,2025-01-27 14:10:37,0.0
-11228,3092,-2312,1463,-3428,-563,2025-01-27 14:10:37,0.0
-11760,3072,-1680,1100,-2619,-1438,2025-01-27 14:10:37,0.0
-11920,2504,-1324,1348,-2074,-1695,2025-01-27 14:10:37,0.0
-12424,2368,-1088,1780,-1376,-1553,2025-01-27 14:10:38,0.0
-12840,2092,-1672,2008,-853,-1554,2025-01-27 14:10:38,0.0
-13960,1728,-2440,2112,-548,-1642,2025-01-27 14:10:38,0.0
-16592,1792,-3844,2623,-599,-1217,2025-01-27 14:10:38,0.0
-18440,1672,-5300,3195,-580,-254,2025-01-27 14:10:38,0.0
-22268,2080,-6404,3241,-13,2359,2025-01-27 14:10:38,0.0
-21204,1820,-7100,2254,-243,5320,2025-01-27 14:10:38,0.0
-18332,3184,-6096,1976,-2216,5231,2025-01-27 14:10:38,0.0
-16776,5072,-5856,2478,-3824,3203,2025-01-27 14:10:38,0.0
-14560,6488,-7692,2560,-3834,857,2025-01-27 14:10:38,0.0
-12440,6376,-8192,2032,-1317,-1384,2025-01-27 14:10:38,
-11836,5488,-7512,1879,1299,-2525,2025-01-27 14:10:38,0.0
-12096,3444,-6836,2063,3019,-3536,2025-01-27 14:10:38,0.0
-12496,1972,-7088,2171,4001,-4446,2025-01-27 14:10:38,0.0
-12732,476,-7388,1943,4098,-4842,2025-01-27 14:10:38,0.0
-12352,-496,-7396,1885,3453,-4854,2025-01-27 14:10:38,0.0
-12048,-560,-8144,2430,3251,-4964,2025-01-27 14:10:38,0.0
-11964,76,-8372,2738,4113,-5077,2025-01-27 14:10:38,0.0
-11448,720,-7796,2672,5491,-5516,2025-01-27 14:10:38,0.0
-11712,736,-6324,2453,6559,-6310,2025-01-27 14:10:38,0.0
-11920,504,-5236,2529,5906,-6951,2025-01-27 14:10:38,0.0
-12512,-140,-5548,2931,3588,-7403,2025-01-27 14:10:38,0.0
-13384,-1344,-6200,2394,1500,-7373,2025-01-27 14:10:38,0.0
-13168,-1780,-5812,2063,-141,-6875,2025-01-27 14:10:38,0.0
-12148,-2548,-5068,2390,-946,-5910,2025-01-27 14:10:38,0.0
-10092,-2932,-4560,3070,-926,-5051,2025-01-27 14:10:38,0.0
-8300,-2688,-4228,3521,-540,-4959,2025-01-27 14:10:38,0.0
-7412,-1972,-4224,3552,-263,-5424,2025-01-27 14:10:38,0.0
-7088,-1352,-3892,3786,-346,-6248,2025-01-27 14:10:38,0.0
-7412,-1244,-3424,3739,-474,-6853,2025-01-27 14:10:38,0.0
-8348,-1464,-3316,3378,-241,-6941,2025-01-27 14:10:38,0.0
-8368,-1268,-3276,3103,153,-6831,2025-01-27 14:10:38,0.0
-9384,-2208,-3672,2607,414,-7148,2025-01-27 14:10:38,0.0
-10484,-2488,-3856,1856,-570,-6284,2025-01-27 14:10:38,0.0
-11000,-2104,-3856,1465,-1311,-5422,2025-01-27 14:10:38,0.0
-11288,-2096,-4052,898,-1889,-4600,2025-01-27 14:10:38,0.0
-11192,-1732,-3596,485,-1415,-3952,2025-01-27 14:10:38,0.0
-10748,-2936,-3804,22,-899,-3784,2025-01-27 14:10:38,0.0
-10788,-3600,-3704,-686,-367,-3375,2025-01-27 14:10:38,0.0
-11476,-4080,-3900,-988,78,-3291,2025-01-27 14:10:38,0.0
-12252,-4888,-3608,-1552,-322,-2851,2025-01-27 14:10:38,0.0
-13440,-4520,-2760,-1543,-307,-2279,2025-01-27 14:10:38,0.0
-13676,-4748,-2544,-1331,-878,-1567,2025-01-27 14:10:38,0.0
-13620,-5380,-1896,-1596,-1362,-260,2025-01-27 14:10:38,0.0
-12412,-4940,-1032,-1571,-778,488,2025-01-27 14:10:38,0.0
-11800,-4680,-1520,-1733,-331,597,2025-01-27 14:10:38,0.0
-12728,-4212,-2180,-2464,-245,689,2025-01-27 14:10:38,0.0
-14140,-3748,-2148,-3234,-584,818,2025-01-27 14:10:38,0.0
-15156,-3120,-3232,-3597,-1485,1287,2025-01-27 14:10:39,0.0
-14152,-2828,-4040,-3226,3811,7253,2025-01-27 14:10:39,0.0
-13216,-1992,-3328,-1775,191,6991,2025-01-27 14:10:39,0.0
-12216,-736,-4636,-882,-2338,6868,2025-01-27 14:10:39,0.0
-11288,416,-5764,-1255,-2923,7444,2025-01-27 14:10:39,0.0
-9176,1396,-5320,-1755,-2352,7748,2025-01-27 14:10:39,0.0
-7132,1816,-5504,-1989,-1680,7197,2025-01-27 14:10:39,0.0
-5940,1764,-5456,-2470,-915,6011,2025-01-27 14:10:39,0.0
-6748,1748,-4592,-2963,281,4956,2025-01-27 14:10:39,0.0
-8132,1456,-4696,-3282,1405,4948,2025-01-27 14:10:39,0.0
-9924,1112,-4480,-3291,2021,5862,2025-01-27 14:10:39,0.0
-11220,756,-4392,-3193,2046,7394,2025-01-27 14:10:39,0.0
-11312,-124,-3888,-2690,840,8195,2025-01-27 14:10:39,0.0
-10580,-284,-2896,-1876,-1275,7705,2025-01-27 14:10:39,0.0
-10632,-244,-2556,-1004,-3021,6643,2025-01-27 14:10:39,0.0
-9884,-20,-2804,-552,-4175,5849,2025-01-27 14:10:39,0.0
-9604,1168,-2076,278,-4345,5575,2025-01-27 14:10:39,0.0
-8688,2392,-2604,1194,-3917,5544,2025-01-27 14:10:39,0.0
-8232,3860,-4196,1696,-2564,5076,2025-01-27 14:10:39,0.0
-7444,4960,-4984,1304,-839,4058,2025-01-27 14:10:39,0.0
-8060,5188,-4020,958,168,2645,2025-01-27 14:10:39,0.0
-9992,4496,-3460,729,92,1439,2025-01-27 14:10:39,0.0
-11484,3776,-2748,190,-438,395,2025-01-27 14:10:39,0.0
-13228,3516,-1448,118,-1269,111,2025-01-27 14:10:39,0.0
-13124,3756,-928,140,-2529,-375,2025-01-27 14:10:39,0.0
-12532,4124,-1240,146,-3135,-963,2025-01-27 14:10:39,0.0
-12288,3872,-1648,333,-2726,-1716,2025-01-27 14:10:39,0.0
-12192,3176,-1704,707,-1790,-2068,2025-01-27 14:10:39,0.0
-12716,2284,-2140,1151,-744,-1887,2025-01-27 14:10:39,0.0
-14140,1720,-2492,1613,231,-1341,2025-01-27 14:10:39,0.0
-16212,1432,-3328,2368,1039,-548,2025-01-27 14:10:39,0.0
-20280,1952,-5984,2386,2425,1218,2025-01-27 14:10:39,0.0
-22068,1404,-6748,1602,1747,4093,2025-01-27 14:10:39,0.0
-19696,3020,-6924,1110,-2558,5508,2025-01-27 14:10:39,0.0
-17412,6836,-7292,1377,-5338,4300,2025-01-27 14:10:39,0.0
-15580,9608,-10032,1069,-3775,2305,2025-01-27 14:10:39,0.0
-13364,9480,-9232,623,-635,-420,2025-01-27 14:10:39,0.0
-12652,4516,-7668,308,788,-4257,2025-01-27 14:10:39,0.0
-12332,2824,-6788,983,1166,-5509,2025-01-27 14:10:39,0.0
-12076,1320,-6672,1631,2208,-5828,2025-01-27 14:10:39,0.0
-11816,100,-6448,1852,3391,-5489,2025-01-27 14:10:39,0.0
-11388,-600,-7628,1746,4627,-5144,2025-01-27 14:10:39,0.0
-11704,-616,-8232,1947,6567,-5436,2025-01-27 14:10:39,0.0
-12060,280,-8236,2370,8846,-5759,2025-01-27 14:10:39,0.0
-12528,1420,-6296,2734,8763,-6181,2025-01-27 14:10:39,0.0
-12932,1908,-5148,2713,5890,-7201,2025-01-27 14:10:39,0.0
-12940,1372,-4812,2235,1628,-7890,2025-01-27 14:10:39,0.0
-12468,236,-4736,1758,-1648,-7865,2025-01-27 14:10:39,0.0
-11484,-1084,-4216,1803,-2820,-7424,2025-01-27 14:10:39,0.0
-10408,-1760,-3908,2206,-2782,-5989,2025-01-27 14:10:39,0.0
-8472,-1868,-3500,2955,-2157,-4308,2025-01-27 14:10:39,0.0
-5820,-2220,-3244,3694,-847,-3779,2025-01-27 14:10:39,0.0
-4752,-2368,-3064,4122,258,-4524,2025-01-27 14:10:39,0.0
-5356,-2108,-3592,4161,1699,-5672,2025-01-27 14:10:39,0.0
-6764,-1868,-4192,3977,2837,-6324,2025-01-27 14:10:39,0.0
-8528,-1908,-4584,3852,3444,-6588,2025-01-27 14:10:39,0.0
-10092,-1848,-4720,3696,3076,-6719,2025-01-27 14:10:39,0.0
-11604,-1688,-4996,3193,1606,-6869,2025-01-27 14:10:39,0.0
-13740,-1192,-4740,2411,-888,-5981,2025-01-27 14:10:39,0.0
-13436,-736,-4756,2065,-3018,-4574,2025-01-27 14:10:40,0.0
-12744,-1064,-5024,1507,-3990,-3498,2025-01-27 14:10:40,0.0
-11692,-2024,-4896,788,-4004,-3115,2025-01-27 14:10:40,0.0
-10900,-2620,-4980,40,-3352,-3229,2025-01-27 14:10:40,
-10260,-2800,-5176,-757,-2747,-3651,2025-01-27 14:10:40,0.0
-11160,-3176,-4052,-1252,-2004,-3435,2025-01-27 14:10:40,0.0
-11936,-3424,-3280,-1620,-1026,-2447,2025-01-27 14:10:40,0.0
-12384,-3616,-2204,-1486,-554,-1815,2025-01-27 14:10:40,0.0
-12776,-3532,-2152,-1380,-321,-1630,2025-01-27 14:10:40,0.0
-13188,-4272,-2336,-1441,-310,-1325,2025-01-27 14:10:40,0.0
-13168,-4976,-2324,-1652,-557,-906,2025-01-27 14:10:40,0.0
-14452,-4556,-2196,-1837,-405,-124,2025-01-27 14:10:40,0.0
-14544,-3812,-2204,-1877,-455,692,2025-01-27 14:10:40,0.0
-14792,-3612,-2656,-2083,-873,973,2025-01-27 14:10:40,0.0
-14628,-3680,-3808,-2009,-1216,1333,2025-01-27 14:10:40,0.0
-14700,-3456,-6384,-2446,-1517,1313,2025-01-27 14:10:40,0.0
-15508,-3516,-8528,-3121,-1053,336,2025-01-27 14:10:40,0.0
-16112,-4836,-9024,-2800,609,-2574,2025-01-27 14:10:40,0.0
-17516,-5436,-8548,-2076,817,-5548,2025-01-27 14:10:40,0.0
-21176,-4784,-8036,-1652,-316,-5908,2025-01-27 14:10:40,0.0
-22388,-3648,-9308,-890,-3058,-2028,2025-01-27 14:10:40,0.0
-18216,-3984,-11344,-1351,-3684,1687,2025-01-27 14:10:40,0.0
-13872,-3668,-9828,-2005,-1534,2863,2025-01-27 14:10:40,0.0
-10460,-2672,-9052,-2412,744,2060,2025-01-27 14:10:40,0.0
-10608,-1008,-7540,-2830,1787,1757,2025-01-27 14:10:40,0.0
-10892,-348,-6848,-3246,2391,1832,2025-01-27 14:10:40,0.0
-11692,-1036,-7188,-3921,3042,2224,2025-01-27 14:10:40,0.0
-12876,-2048,-7676,-4167,3964,2992,2025-01-27 14:10:40,0.0
-13912,-3000,-7716,-4274,4808,4193,2025-01-27 14:10:40,0.0
-13812,-3160,-6128,-4040,4145,5592,2025-01-27 14:10:40,0.0
-13260,-2616,-4188,-3164,2130,6575,2025-01-27 14:10:40,0.0
-12204,-1408,-2772,-1879,250,7125,2025-01-27 14:10:40,0.0
-10736,-432,-4216,-1264,-1497,7187,2025-01-27 14:10:40,0.0
-9308,824,-5160,-1668,-2040,7489,2025-01-27 14:10:40,0.0
-8028,1632,-5016,-1849,-922,7525,2025-01-27 14:10:40,0.0
-7388,1556,-4908,-2047,483,7057,2025-01-27 14:10:40,0.0
-6808,1304,-4516,-2459,1415,6289,2025-01-27 14:10:40,0.0
-7580,884,-3968,-2651,1834,5679,2025-01-27 14:10:40,0.0
-8632,504,-4040,-2673,1883,5577,2025-01-27 14:10:40,0.0
-9936,376,-3804,-2464,1708,6198,2025-01-27 14:10:40,0.0
-10404,456,-4272,-2253,871,7200,2025-01-27 14:10:40,0.0
-10084,1804,-3672,-2215,-289,7744,2025-01-27 14:10:40,0.0
-9236,2584,-3696,-2186,-1033,7127,2025-01-27 14:10:40,0.0
-9072,2996,-3708,-2382,-1592,5992,2025-01-27 14:10:40,0.0
-8876,2704,-3112,-2204,-2058,4726,2025-01-27 14:10:40,0.0
-9512,2412,-3764,-1931,-1961,3809,2025-01-27 14:10:40,0.0
-10444,2036,-3684,-1978,-943,3479,2025-01-27 14:10:40,0.0
-9964,2188,-3760,-1617,-445,3219,2025-01-27 14:10:40,0.0
-10780,2216,-3116,-1016,-374,3000,2025-01-27 14:10:40,0.0
-10804,2512,-3728,-407,-997,2696,2025-01-27 14:10:40,0.0
-11280,2976,-3204,-11,-1906,2241,2025-01-27 14:10:40,0.0
-12148,3200,-3004,52,-2455,1885,2025-01-27 14:10:40,0.0
-12232,3808,-1896,108,-3192,1420,2025-01-27 14:10:40,0.0
-12276,4324,-1128,81,-3127,605,2025-01-27 14:10:40,0.0
-11904,4936,-272,297,-2601,-311,2025-01-27 14:10:40,0.0
-12152,4828,-692,635,-1618,-1581,2025-01-27 14:10:40,0.0
-13092,4364,-500,1033,-784,-2113,2025-01-27 14:10:40,0.0
-14504,3808,-1852,1443,-679,-1905,2025-01-27 14:10:40,0.0
-15136,3136,-3804,2040,-1083,-1757,2025-01-27 14:10:40,0.0
-18728,2740,-6888,2749,-782,-706,2025-01-27 14:10:40,0.0
-22200,2292,-7800,3144,158,1607,2025-01-27 14:10:40,0.0
-23352,1964,-6472,3742,-625,3104,2025-01-27 14:10:41,0.0
-19628,3200,-8084,3452,-2608,2251,2025-01-27 14:10:41,0.0
-15400,5704,-9336,2579,-2891,-272,2025-01-27 14:10:41,0.0
-12800,7932,-9164,1994,-1096,-2698,2025-01-27 14:10:41,0.0
-11636,7184,-9184,984,1648,-4163,2025-01-27 14:10:41,0.0
-11232,6044,-8212,-429,4446,-5314,2025-01-27 14:10:41,0.0
-10480,3824,-7528,-1659,5185,-6782,2025-01-27 14:10:41,0.0
-10780,1484,-7200,-2038,3963,-8504,2025-01-27 14:10:41,0.0
-11328,60,-7900,-1724,3063,-9550,2025-01-27 14:10:41,0.0
-12272,-1228,-8092,-1526,3761,-9969,2025-01-27 14:10:41,0.0
-12992,-1272,-7428,-1129,4914,-9479,2025-01-27 14:10:41,0.0
-13216,-1064,-6244,-449,5079,-8054,2025-01-27 14:10:41,0.0
-12440,-1624,-5968,198,4112,-7409,2025-01-27 14:10:41,0.0
-11164,-2716,-6044,632,2029,-7868,2025-01-27 14:10:41,0.0
-11016,-3200,-4604,1097,-188,-8328,2025-01-27 14:10:41,0.0
-11012,-3180,-3636,1991,-2228,-7930,2025-01-27 14:10:41,0.0
-9916,-2796,-3648,3129,-3035,-6632,2025-01-27 14:10:41,0.0
-8464,-2312,-3728,4070,-2718,-5159,2025-01-27 14:10:41,0.0
-6400,-2236,-3916,4650,-1441,-4438,2025-01-27 14:10:41,0.0
-5044,-2232,-4144,4591,29,-4656,2025-01-27 14:10:41,0.0
-5076,-1880,-4500,4259,1853,-5048,2025-01-27 14:10:41,0.0
-6232,-1592,-4556,3683,3525,-5466,2025-01-27 14:10:41,0.0
-7396,-2120,-4464,3595,3897,-6147,2025-01-27 14:10:41,0.0
-9792,-3260,-4580,3481,2942,-6680,2025-01-27 14:10:41,0.0
-12056,-2660,-4336,3095,1733,-5967,2025-01-27 14:10:41,0.0
-12888,-2276,-4600,2945,281,-5153,2025-01-27 14:10:41,0.0
-13520,-2116,-4520,2637,-1189,-4339,2025-01-27 14:10:41,0.0
-13068,-2096,-4840,2153,-2318,-3551,2025-01-27 14:10:41,0.0
-11852,-2516,-4672,1751,-2475,-3145,2025-01-27 14:10:41,0.0
-10760,-3028,-4104,1687,-1696,-3378,2025-01-27 14:10:41,0.0
-10692,-4040,-4060,1483,-764,-3706,2025-01-27 14:10:41,0.0
-10884,-4576,-3784,1042,200,-3548,2025-01-27 14:10:41,0.0
-11484,-5076,-3308,952,902,-3393,2025-01-27 14:10:41,0.0
-13036,-4732,-2956,638,271,-2548,2025-01-27 14:10:41,0.0
-13904,-3656,-2508,307,-614,-1731,2025-01-27 14:10:41,0.0
-13760,-3456,-2536,-70,-1389,-1158,2025-01-27 14:10:41,0.0
-13200,-4416,-2464,-602,-1696,-515,2025-01-27 14:10:41,0.0
-12600,-5316,-2360,-1454,-1013,-32,2025-01-27 14:10:41,0.0
-12636,-5656,-2340,-2095,19,434,2025-01-27 14:10:41,0.0
-14068,-5356,-2616,-2424,-26,936,2025-01-27 14:10:41,0.0
-15120,-4724,-3340,-2507,-536,1591,2025-01-27 14:10:41,0.0
-15120,-4600,-6364,-2318,-1272,2007,2025-01-27 14:10:41,0.0
-15076,-5540,-9312,-2394,-556,1020,2025-01-27 14:10:41,
-15776,-6676,-9764,-2382,1436,-1056,2025-01-27 14:10:41,0.0
-18124,-6808,-8656,-2034,2646,-3188,2025-01-27 14:10:41,0.0
-22420,-4884,-8720,-1547,1375,-1663,2025-01-27 14:10:41,0.0
-22532,-4292,-10444,-1990,-922,2816,2025-01-27 14:10:41,0.0
-16116,-4400,-10880,-2524,-2413,4781,2025-01-27 14:10:41,0.0
-12132,-3376,-10908,-3220,-567,4303,2025-01-27 14:10:41,0.0
-11196,-1592,-8612,-3897,1818,4331,2025-01-27 14:10:41,0.0
-10744,-84,-7560,-4367,3401,4713,2025-01-27 14:10:41,0.0
-10844,-64,-7624,-4260,4656,4768,2025-01-27 14:10:41,0.0
-11644,-1480,-9072,-4385,5709,4503,2025-01-27 14:10:41,0.0
-12628,-3220,-9104,-5022,6120,4576,2025-01-27 14:10:41,0.0
-14088,-4228,-7288,-4877,6023,5063,2025-01-27 14:10:41,0.0
-14188,-4176,-5044,-3756,3993,5982,2025-01-27 14:10:41,0.0
-13540,-3424,-3888,-2224,701,7065,2025-01-27 14:10:41,0.0
-12660,-1992,-4008,-799,-2274,7990,2025-01-27 14:10:41,0.0
-11468,-336,-5332,-448,-3534,9046,2025-01-27 14:10:41,0.0
-9456,1116,-5884,-752,-3374,9999,2025-01-27 14:10:41,0.0
-6912,2116,-5544,-1056,-2735,10036,2025-01-27 14:10:41,0.0
-5372,2344,-4564,-1431,-982,8466,2025-01-27 14:10:42,0.0
-4912,2152,-3820,-1652,239,6754,2025-01-27 14:10:42,0.0
-6640,1168,-3452,-1739,1418,5743,2025-01-27 14:10:42,0.0
-8240,-68,-4120,-1505,2336,6083,2025-01-27 14:10:42,0.0
-9172,-804,-4472,-1254,2776,7168,2025-01-27 14:10:42,0.0
-10060,-380,-4292,-1099,2126,7898,2025-01-27 14:10:42,0.0
-9468,608,-4012,-802,270,7532,2025-01-27 14:10:42,0.0
-9884,2304,-3520,-462,-1729,6645,2025-01-27 14:10:42,0.0
-9672,2892,-2940,38,-3110,5996,2025-01-27 14:10:42,0.0
-9796,3052,-4672,168,-3873,5124,2025-01-27 14:10:42,0.0
-9804,2976,-4756,-265,-3441,4610,2025-01-27 14:10:42,0.0
-9204,3072,-4484,-210,-2467,3847,2025-01-27 14:10:42,0.0
-9088,3232,-4216,462,-2203,2766,2025-01-27 14:10:42,0.0
-10128,3608,-4264,577,-1556,1864,2025-01-27 14:10:42,0.0
-10356,3848,-4220,479,-1658,1256,2025-01-27 14:10:42,0.0
-11380,3584,-4188,145,-1615,546,2025-01-27 14:10:42,0.0
-11644,3728,-3580,-133,-2138,54,2025-01-27 14:10:42,0.0
-12092,4480,-2212,-80,-2075,-257,2025-01-27 14:10:42,0.0
-11720,4864,-2344,-263,-2505,-566,2025-01-27 14:10:42,0.0
-11920,4556,-1824,-318,-1578,-950,2025-01-27 14:10:42,0.0
-13200,3624,-1176,118,-537,-1250,2025-01-27 14:10:42,0.0
-14720,2592,-800,682,-60,-1403,2025-01-27 14:10:42,0.0
-15772,2140,-1780,1307,-486,-1434,2025-01-27 14:10:42,0.0
-15412,2280,-4256,1702,-1023,-1568,2025-01-27 14:10:42,0.0
-16064,3088,-7452,2280,-966,-1616,2025-01-27 14:10:42,0.0
-23300,5112,-10012,2013,-409,1115,2025-01-27 14:10:42,0.0
-27092,5552,-10388,267,-894,4946,2025-01-27 14:10:42,0.0
-24812,6344,-7856,-2010,-3202,5957,2025-01-27 14:10:42,0.0
-16700,8144,-6756,-2924,-5978,2204,2025-01-27 14:10:42,0.0
-10796,7872,-6708,-2441,-7867,-2526,2025-01-27 14:10:42,0.0
-8624,4260,-7820,-817,-6354,-6354,2025-01-27 14:10:42,0.0
-8180,1948,-7556,1009,-2111,-7502,2025-01-27 14:10:42,0.0
-8656,-208,-7188,2364,2618,-7273,2025-01-27 14:10:42,0.0
-9224,-1860,-6492,3465,6629,-6742,2025-01-27 14:10:42,0.0
-10540,-1988,-7684,3807,9814,-7026,2025-01-27 14:10:42,0.0
-11892,-276,-9028,3083,12770,-7821,2025-01-27 14:10:42,0.0
-13356,2088,-7248,3100,11807,-8681,2025-01-27 14:10:42,0.0
-13888,2936,-6556,3024,7917,-9545,2025-01-27 14:10:42,0.0
-13792,2564,-5980,2418,2692,-10121,2025-01-27 14:10:42,0.0
-13192,1676,-6008,1318,-1976,-9643,2025-01-27 14:10:42,0.0
-11656,836,-5604,505,-4337,-8345,2025-01-27 14:10:42,0.0
-9720,-784,-5388,139,-3951,-6707,2025-01-27 14:10:42,0.0
-7488,-2508,-5192,513,-2607,-5592,2025-01-27 14:10:42,0.0
-6016,-3908,-4432,1429,-1024,-5298,2025-01-27 14:10:42,0.0
-5400,-4944,-3872,2546,553,-5634,2025-01-27 14:10:42,0.0
-5540,-5452,-3800,3379,2186,-5765,2025-01-27 14:10:42,0.0
-6680,-4648,-4224,4065,3207,-5524,2025-01-27 14:10:42,0.0
-7972,-3472,-4552,4428,3582,-5073,2025-01-27 14:10:42,0.0
-9056,-2096,-5148,4625,3423,-4848,2025-01-27 14:10:42,0.0
-9916,-1048,-5600,4176,2730,-5035,2025-01-27 14:10:42,0.0
-10904,-636,-6052,3125,1403,-5567,2025-01-27 14:10:42,0.0
-12292,-752,-6136,2196,-115,-5582,2025-01-27 14:10:42,0.0
-13112,-904,-5544,1711,-1444,-4909,2025-01-27 14:10:42,0.0
-12644,-1376,-4964,1471,-2786,-4662,2025-01-27 14:10:42,0.0
-11720,-2228,-5052,600,-3429,-4561,2025-01-27 14:10:42,0.0
-11016,-2244,-4944,34,-3144,-4540,2025-01-27 14:10:42,0.0
-10820,-3096,-4244,-484,-1710,-4845,2025-01-27 14:10:42,0.0
-10500,-3612,-5024,-1232,-569,-4662,2025-01-27 14:10:42,0.0
-11300,-4136,-3912,-1323,12,-4536,2025-01-27 14:10:42,0.0
-12292,-5176,-3836,-1562,176,-4054,2025-01-27 14:10:42,0.0
-13800,-5140,-2348,-1475,141,-3171,2025-01-27 14:10:42,0.0
-13752,-5252,-2700,-1230,-199,-2257,2025-01-27 14:10:42,0.0
-12752,-5304,-2584,-1348,-1124,-1473,2025-01-27 14:10:43,0.0
-12660,-5136,-1820,-1348,-1916,-669,2025-01-27 14:10:43,0.0
-12060,-5024,-2560,-1770,-939,190,2025-01-27 14:10:43,0.0
-12432,-4784,-2464,-2253,28,613,2025-01-27 14:10:43,0.0
-13172,-4768,-2524,-2414,-169,846,2025-01-27 14:10:43,0.0
-14404,-4388,-3584,-2663,-981,1236,2025-01-27 14:10:43,0.0
-15140,-3896,-4976,-2887,-1882,1914,2025-01-27 14:10:43,0.0
-14932,-4468,-7836,-2877,-2208,2422,2025-01-27 14:10:43,0.0
-14588,-5340,-10440,-3627,-536,824,2025-01-27 14:10:43,0.0
-16476,-6040,-9336,-3184,2126,-2816,2025-01-27 14:10:43,0.0
-20500,-4596,-7124,-2722,2407,-5560,2025-01-27 14:10:43,0.0
-24672,-2976,-6624,-1914,-176,-3870,2025-01-27 14:10:43,0.0
-23524,-4424,-8776,-1493,-2047,1098,2025-01-27 14:10:43,0.0
-16960,-5852,-10500,-1606,-3443,4932,2025-01-27 14:10:43,0.0
-12520,-6360,-10188,-2184,-1485,5378,2025-01-27 14:10:43,0.0
-9376,-5672,-10144,-2905,1944,4010,2025-01-27 14:10:43,0.0
-10528,-3692,-8320,-3138,3846,3696,2025-01-27 14:10:43,0.0
-12348,-2496,-7276,-2418,4421,4479,2025-01-27 14:10:43,0.0
-13556,-1560,-7184,-1706,3983,5020,2025-01-27 14:10:43,0.0
-14428,-1412,-7992,-1348,3370,5446,2025-01-27 14:10:43,
-14644,-1704,-8920,-1457,2941,5930,2025-01-27 14:10:43,0.0
-14464,-2172,-8392,-1881,2556,6675,2025-01-27 14:10:43,0.0
-13644,-2228,-6032,-2064,1459,7635,2025-01-27 14:10:43,0.0
-12164,-2072,-4216,-1592,-9,8296,2025-01-27 14:10:43,0.0
-10740,-1864,-3648,-760,-1650,8635,2025-01-27 14:10:43,0.0
-9088,-1196,-3372,-151,-2072,8561,2025-01-27 14:10:43,0.0
-7188,-256,-3940,133,-1945,8155,2025-01-27 14:10:43,0.0
-6016,36,-4432,-96,-1337,7884,2025-01-27 14:10:43,0.0
-5724,780,-3944,-573,-165,7719,2025-01-27 14:10:43,0.0
-5240,1528,-3708,-802,899,7387,2025-01-27 14:10:43,0.0
-5732,1836,-4168,-977,1989,6888,2025-01-27 14:10:43,0.0
-7444,1976,-4136,-1174,2525,6484,2025-01-27 14:10:43,0.0
-9872,1704,-4188,-1526,2423,6687,2025-01-27 14:10:43,0.0
-10812,1368,-4364,-2080,1502,7381,2025-01-27 14:10:43,0.0
-10616,1452,-4156,-2343,-952,7327,2025-01-27 14:10:43,0.0
-10244,1716,-3596,-2012,-2956,6234,2025-01-27 14:10:43,0.0
-9728,1928,-3392,-1468,-3996,4598,2025-01-27 14:10:43,0.0
-9912,2476,-3220,-1041,-4028,3168,2025-01-27 14:10:43,0.0
-11044,2356,-3472,-1222,-2989,2594,2025-01-27 14:10:43,0.0
-11004,2112,-4200,-1115,-1881,2841,2025-01-27 14:10:43,0.0
-10540,2208,-4208,-619,-1509,3385,2025-01-27 14:10:43,0.0
-10324,2688,-4236,-427,-1409,3556,2025-01-27 14:10:43,0.0
-9576,3144,-4632,-557,-1533,3104,2025-01-27 14:10:43,0.0
-10884,3208,-4160,-729,-992,2020,2025-01-27 14:10:43,0.0
-10960,3588,-3916,-859,-636,1018,2025-01-27 14:10:43,0.0
-12232,4000,-2640,-701,-1329,201,2025-01-27 14:10:43,0.0
-13016,4620,-1964,-562,-2553,-223,2025-01-27 14:10:43,0.0
-12784,5156,-836,-155,-3233,-713,2025-01-27 14:10:43,0.0
-11508,5108,-1468,-160,-2771,-1757,2025-01-27 14:10:43,0.0
-12772,4212,-1300,-34,-951,-2271,2025-01-27 14:10:43,0.0
-14284,2472,-1432,382,203,-2027,2025-01-27 14:10:43,0.0
-16432,908,-1128,814,429,-1401,2025-01-27 14:10:43,0.0
-17088,68,-2740,1454,-481,-1278,2025-01-27 14:10:43,0.0
-18200,676,-7008,2590,-1898,-1371,2025-01-27 14:10:43,0.0
-24920,3048,-9100,3873,-2472,1902,2025-01-27 14:10:43,0.0
-26156,4064,-10976,2678,-2418,6565,2025-01-27 14:10:43,0.0
-17464,5452,-8132,-329,-2027,5660,2025-01-27 14:10:43,0.0
-10876,7976,-4288,247,-3232,-691,2025-01-27 14:10:43,0.0
-9740,7428,-6988,1585,-3125,-6640,2025-01-27 14:10:43,0.0
-11000,4744,-7896,1199,-1062,-8189,2025-01-27 14:10:43,0.0
-11216,1864,-7384,1720,2663,-7324,2025-01-27 14:10:43,0.0
-11392,60,-7028,2288,6338,-6073,2025-01-27 14:10:43,0.0
-11124,-76,-7972,2582,9811,-5832,2025-01-27 14:10:44,0.0
-11604,408,-7644,3023,11913,-6767,2025-01-27 14:10:44,0.0
-14208,932,-7968,3054,10269,-7494,2025-01-27 14:10:44,0.0
-13756,772,-8192,2064,6207,-8185,2025-01-27 14:10:44,0.0
-14088,672,-6040,1284,2309,-8149,2025-01-27 14:10:44,0.0
-12928,292,-5292,1210,-698,-7314,2025-01-27 14:10:44,0.0
-11168,-196,-5092,1510,-2346,-6105,2025-01-27 14:10:44,0.0
-9800,-772,-5324,1545,-2872,-4928,2025-01-27 14:10:44,0.0
-7320,-940,-4596,1448,-2925,-4547,2025-01-27 14:10:44,0.0
-5660,-1628,-4208,1668,-2465,-5107,2025-01-27 14:10:44,0.0
-5788,-1968,-4016,1695,-1557,-5729,2025-01-27 14:10:44,0.0
-7060,-2592,-3860,1687,228,-5526,2025-01-27 14:10:44,0.0
-7228,-2924,-3640,2016,1837,-5169,2025-01-27 14:10:44,0.0
-7188,-2520,-3968,2466,2121,-5478,2025-01-27 14:10:44,0.0
-7580,-2352,-4828,2567,1654,-6288,2025-01-27 14:10:44,0.0
-9284,-1952,-5364,2118,1265,-6552,2025-01-27 14:10:44,0.0
-11100,-1076,-5424,1417,1163,-5437,2025-01-27 14:10:44,0.0
-11824,-196,-5512,838,976,-4393,2025-01-27 14:10:44,0.0
-11572,-216,-5332,195,281,-4658,2025-01-27 14:10:44,0.0
-12120,-1428,-4916,-237,-696,-5469,2025-01-27 14:10:44,0.0
-12912,-3320,-4180,-278,-1649,-5600,2025-01-27 14:10:44,0.0
-11640,-4048,-3960,487,-2670,-5216,2025-01-27 14:10:44,0.0
-11692,-4860,-3856,1185,-2924,-5029,2025-01-27 14:10:44,0.0
-12216,-4512,-3516,1437,-2480,-4309,2025-01-27 14:10:44,0.0
-11404,-3972,-3920,1904,-2086,-3926,2025-01-27 14:10:44,0.0
-11904,-3912,-4408,1709,-2116,-3237,2025-01-27 14:10:44,0.0
-12400,-3816,-4400,1012,-1826,-2080,2025-01-27 14:10:44,0.0
-12124,-3244,-3228,597,-1264,-1361,2025-01-27 14:10:44,0.0
-11940,-2692,-3064,451,-1185,-1030,2025-01-27 14:10:44,0.0
-12276,-4520,-2276,-721,-1235,69,2025-01-27 14:10:44,0.0
-11872,-5416,-2724,-945,-610,787,2025-01-27 14:10:44,0.0
-11900,-5660,-2424,-1158,-42,1365,2025-01-27 14:10:44,0.0
-12024,-5144,-2356,-1246,68,1482,2025-01-27 14:10:44,0.0
-12976,-4312,-2772,-1457,258,1694,2025-01-27 14:10:44,0.0
-13860,-3708,-3160,-1947,366,1856,2025-01-27 14:10:44,0.0
-15224,-3196,-4452,-2900,25,2089,2025-01-27 14:10:44,0.0
-15688,-2724,-5724,-3348,-585,2794,2025-01-27 14:10:44,0.0
-14084,-4508,-10156,-3748,-1465,2587,2025-01-27 14:10:44,0.0
-14480,-7860,-9856,-4125,1682,-1466,2025-01-27 14:10:44,0.0
-18840,-6748,-5788,-3075,4646,-5171,2025-01-27 14:10:44,0.0
-23724,-3188,-5608,-2416,2975,-5282,2025-01-27 14:10:44,0.0
-24628,-2668,-9028,-2261,-1271,-1554,2025-01-27 14:10:44,0.0
-18692,-4468,-11540,-2273,-4086,3270,2025-01-27 14:10:44,0.0
-12188,-4664,-11248,-2235,-2288,3475,2025-01-27 14:10:44,0.0
-10552,-3076,-8232,-3125,2020,1711,2025-01-27 14:10:44,0.0
-11044,-2224,-7152,-3477,5095,713,2025-01-27 14:10:44,0.0
-12796,-2148,-6828,-3123,5373,1611,2025-01-27 14:10:44,0.0
-14020,-2576,-7076,-2531,5189,2887,2025-01-27 14:10:44,0.0
-14408,-3000,-7636,-2053,4668,3883,2025-01-27 14:10:44,0.0
-14608,-3544,-7952,-1834,3625,4657,2025-01-27 14:10:44,0.0
-14136,-3252,-6692,-1445,2174,5378,2025-01-27 14:10:44,0.0
-12860,-2660,-4936,-597,-442,6033,2025-01-27 14:10:44,0.0
-11112,-1704,-4472,148,-2532,6474,2025-01-27 14:10:44,0.0
-9396,-312,-4580,542,-3897,6640,2025-01-27 14:10:44,0.0
-8420,884,-4788,645,-4062,6738,2025-01-27 14:10:44,0.0
-7104,1744,-4800,500,-3332,6818,2025-01-27 14:10:44,0.0
-5664,1896,-5424,18,-2128,6260,2025-01-27 14:10:44,0.0
-5384,1716,-5612,-827,-208,5286,2025-01-27 14:10:44,
