acceleration_x,acceleration_y,acceleration_z,gyroscope_x,gyroscope_y,gyroscope_z,timestamp,label
-12188,-864,9096,-182,158,-183,2025-01-27 14:05:24,0.0
-12168,-760,9108,-173,178,-184,2025-01-27 14:05:24,0.0
-12200,-816,9232,-177,164,-186,2025-01-27 14:05:24,0.0
-12128,-840,9240,-150,136,-214,2025-01-27 14:05:24,0.0
-12156,-796,9108,-176,173,-202,2025-01-27 14:05:24,0.0
-12056,-676,9072,-186,190,-195,2025-01-27 14:05:24,0.0
-12212,-904,9140,-174,164,-200,2025-01-27 14:05:24,0.0
-12224,-752,9200,-117,144,-195,2025-01-27 14:05:24,0.0
-12136,-796,9188,-137,148,-190,2025-01-27 14:05:24,0.0
-12116,-744,9080,-132,175,-186,2025-01-27 14:05:24,0.0
-12132,-760,9156,-140,189,-173,2025-01-27 14:05:24,0.0
-12176,-764,9208,-158,240,-185,2025-01-27 14:05:24,0.0
-12268,-764,9096,-157,220,-189,2025-01-27 14:05:24,0.0
-12296,-720,9160,-158,194,-202,2025-01-27 14:05:24,0.0
-12264,-760,9156,-174,165,-181,2025-01-27 14:05:24,0.0
-12104,-836,9120,-171,192,-204,2025-01-27 14:05:24,0.0
-12228,-748,9224,-189,220,-234,2025-01-27 14:05:24,0.0
-12368,-832,8944,-192,134,-209,2025-01-27 14:05:24,0.0
-12176,-812,9048,-168,23,-177,2025-01-27 14:05:24,0.0
-11996,-728,9060,-141,45,-140,2025-01-27 14:05:24,0.0
-11968,-728,9288,-141,94,-160,2025-01-27 14:05:24,0.0
-12088,-784,9200,-157,128,-149,2025-01-27 14:05:24,0.0
-12176,-908,9156,-159,198,-189,2025-01-27 14:05:24,0.0
-12348,-820,9308,-195,184,-181,2025-01-27 14:05:24,0.0
-12132,-824,9224,-169,158,-195,2025-01-27 14:05:24,0.0
-12140,-776,9084,-195,110,-181,2025-01-27 14:05:24,0.0
-12076,-748,8948,-136,146,-155,2025-01-27 14:05:24,0.0
-12124,-664,8984,-160,165,-147,2025-01-27 14:05:24,0.0
-12316,-700,9068,-170,216,-146,2025-01-27 14:05:24,0.0
-12252,-732,9136,-146,206,-148,2025-01-27 14:05:24,0.0
-12216,-776,9344,-181,191,-149,2025-01-27 14:05:24,0.0
-12148,-740,9256,-157,161,-166,2025-01-27 14:05:24,0.0
-12244,-772,9196,-155,154,-161,2025-01-27 14:05:24,0.0
-12156,-824,9076,-125,142,-164,2025-01-27 14:05:24,0.0
-12252,-820,9264,-157,150,-166,2025-01-27 14:05:24,0.0
-12264,-668,9280,-145,162,-166,2025-01-27 14:05:24,0.0
-12168,-796,9192,-152,171,-164,2025-01-27 14:05:24,0.0
-12228,-748,9080,-143,195,-153,2025-01-27 14:05:24,0.0
-12108,-756,9312,-155,192,-145,2025-01-27 14:05:24,0.0
-12260,-764,9160,-133,190,-152,2025-01-27 14:05:24,0.0
-12148,-740,9028,-149,168,-150,2025-01-27 14:05:24,0.0
-12120,-740,9240,-141,178,-153,2025-01-27 14:05:24,0.0
-12200,-692,9276,-115,203,-166,2025-01-27 14:05:24,0.0
-12140,-776,9104,-152,180,-184,2025-01-27 14:05:24,0.0
-12168,-832,9236,-143,160,-175,2025-01-27 14:05:24,0.0
-12260,-780,9132,-178,193,-172,2025-01-27 14:05:24,0.0
-12200,-800,8960,-150,182,-156,2025-01-27 14:05:25,0.0
-12176,-728,9200,-126,150,-173,2025-01-27 14:05:25,0.0
-12180,-788,9204,-158,160,-152,2025-01-27 14:05:25,0.0
-12112,-740,9080,-157,169,-186,2025-01-27 14:05:25,0.0
-12108,-740,9140,-174,167,-165,2025-01-27 14:05:25,0.0
-12088,-772,9172,-169,178,-194,2025-01-27 14:05:25,0.0
-12140,-748,9076,-179,146,-155,2025-01-27 14:05:25,0.0
-12128,-716,9168,-166,170,-179,2025-01-27 14:05:25,0.0
-12268,-776,9200,-149,155,-165,2025-01-27 14:05:25,0.0
-12212,-712,9188,-187,169,-164,2025-01-27 14:05:25,0.0
-12112,-704,9120,-154,171,-163,2025-01-27 14:05:25,0.0
-12040,-716,9056,-157,189,-162,2025-01-27 14:05:25,0.0
-12176,-776,9216,-161,156,-174,2025-01-27 14:05:25,0.0
-12192,-748,9112,-138,159,-124,2025-01-27 14:05:25,0.0
-12120,-740,9136,-160,143,-155,2025-01-27 14:05:25,0.0
-12204,-804,9092,-130,165,-168,2025-01-27 14:05:25,0.0
-12228,-848,9116,-148,165,-165,2025-01-27 14:05:25,0.0
-12036,-668,9288,-172,205,-184,2025-01-27 14:05:25,0.0
-12160,-740,9072,-157,210,-183,2025-01-27 14:05:25,0.0
-12160,-812,9140,-160,198,-182,2025-01-27 14:05:25,0.0
-12280,-760,9160,-167,189,-184,2025-01-27 14:05:25,0.0
-12208,-764,9268,-157,189,-189,2025-01-27 14:05:25,0.0
-12276,-680,9064,-180,226,-189,2025-01-27 14:05:25,0.0
-12356,-672,9128,-181,210,-216,2025-01-27 14:05:25,0.0
-12232,-720,9008,-155,54,-208,2025-01-27 14:05:25,0.0
-12080,-812,9164,-140,25,-151,2025-01-27 14:05:25,0.0
-12096,-704,9164,-100,82,-146,2025-01-27 14:05:25,0.0
-12136,-720,9216,-151,136,-180,2025-01-27 14:05:25,0.0
-12048,-780,9028,-154,132,-185,2025-01-27 14:05:26,0.0
-12224,-808,9156,-171,165,-189,2025-01-27 14:05:26,0.0
-12188,-800,9236,-181,159,-177,2025-01-27 14:05:26,0.0
-12144,-760,9148,-194,142,-159,2025-01-27 14:05:26,0.0
-12128,-760,9080,-156,136,-187,2025-01-27 14:05:26,0.0
-12044,-756,9096,-195,165,-186,2025-01-27 14:05:26,0.0
-12172,-736,9148,-178,178,-167,2025-01-27 14:05:26,0.0
-12092,-720,9100,-172,216,-172,2025-01-27 14:05:26,0.0
-12232,-752,9112,-150,167,-159,2025-01-27 14:05:26,0.0
-12080,-624,9188,-82,207,-120,2025-01-27 14:05:26,0.0
-12084,-660,9180,-51,208,-111,2025-01-27 14:05:26,0.0
-12072,-656,9064,-14,320,-134,2025-01-27 14:05:26,0.0
-12104,-776,9192,26,286,-99,2025-01-27 14:05:26,0.0
-12060,-684,9032,-29,143,-66,2025-01-27 14:05:26,0.0
-11952,-624,9204,-101,54,-19,2025-01-27 14:05:26,0.0
-11868,-724,9280,-111,67,75,2025-01-27 14:05:26,0.0
-11868,-824,9036,-140,357,92,2025-01-27 14:05:26,0.0
-11868,-796,9020,-154,481,110,2025-01-27 14:05:26,0.0
-11972,-748,9064,-212,679,119,2025-01-27 14:05:26,0.0
-12116,-840,9136,-152,652,172,2025-01-27 14:05:26,0.0
-12004,-628,8856,-6,695,283,2025-01-27 14:05:26,0.0
-11820,-404,8732,-103,896,366,2025-01-27 14:05:26,0.0
-11964,-320,8680,-121,1275,378,2025-01-27 14:05:26,0.0
-12356,-1088,8956,-264,2241,617,2025-01-27 14:05:26,0.0
-11276,-484,8968,-267,1698,614,2025-01-27 14:05:27,0.0
-12148,-592,8996,-170,2289,712,2025-01-27 14:05:27,
-12460,-632,8924,-70,2582,825,2025-01-27 14:05:27,0.0
-2252,1000,5840,-206,1484,862,2025-01-27 14:05:27,0.0
-12548,-352,8360,-153,2215,1113,2025-01-27 14:05:27,0.0
-12580,-464,8716,-148,2211,1149,2025-01-27 14:05:27,0.0
-12472,-700,9000,-261,2714,1355,2025-01-27 14:05:27,0.0
-11992,-208,8276,-63,2800,1192,2025-01-27 14:05:27,0.0
-9092,48,7772,-5,2697,1364,2025-01-27 14:05:27,0.0
-12528,-512,8304,109,3199,1288,2025-01-27 14:05:27,0.0
-13704,-328,8228,247,3361,1522,2025-01-27 14:05:27,0.0
-13548,-316,7888,336,2361,1344,2025-01-27 14:05:27,0.0
-13236,200,8380,361,3023,1272,2025-01-27 14:05:27,0.0
-13632,172,8144,397,2676,1221,2025-01-27 14:05:27,0.0
-10948,-140,7536,552,2256,1208,2025-01-27 14:05:27,0.0
-12544,232,7884,560,2678,1334,2025-01-27 14:05:27,0.0
-10616,1316,7032,937,2784,1006,2025-01-27 14:05:27,0.0
-14524,348,8448,1114,2139,876,2025-01-27 14:05:27,0.0
-19028,-596,8584,1175,428,1008,2025-01-27 14:05:27,0.0
-14400,508,8608,1083,1124,1437,2025-01-27 14:05:27,0.0
-13076,108,8500,1264,2274,1190,2025-01-27 14:05:27,0.0
-14000,736,9216,1602,3515,1642,2025-01-27 14:05:27,0.0
-14792,-48,9932,1957,5949,1680,2025-01-27 14:05:27,0.0
-13420,76,9208,2292,6999,1584,2025-01-27 14:05:27,0.0
-14252,-244,9332,2427,9428,1264,2025-01-27 14:05:27,0.0
-15052,772,8296,2204,9406,1096,2025-01-27 14:05:27,0.0
-13156,272,8384,1886,10410,931,2025-01-27 14:05:27,0.0
-14260,640,7860,1832,9427,834,2025-01-27 14:05:27,0.0
-14380,892,7464,1628,7755,540,2025-01-27 14:05:27,0.0
-14584,312,7484,1436,6850,734,2025-01-27 14:05:27,0.0
-14256,564,6740,1292,6987,675,2025-01-27 14:05:27,0.0
-13848,700,5532,1138,6753,385,2025-01-27 14:05:27,0.0
-14156,948,5344,1011,6670,306,2025-01-27 14:05:27,0.0
-13928,1344,4440,733,6580,137,2025-01-27 14:05:27,0.0
-13360,1492,3776,393,6871,145,2025-01-27 14:05:27,0.0
-13460,1584,3808,85,6999,382,2025-01-27 14:05:27,0.0
-13700,1708,3244,-246,6875,267,2025-01-27 14:05:27,0.0
-14724,1880,3376,-671,6585,251,2025-01-27 14:05:27,0.0
-14640,1640,3292,-918,6155,450,2025-01-27 14:05:27,0.0
-14616,1672,3152,-1100,5651,524,2025-01-27 14:05:27,0.0
-14324,1836,3192,-1315,5219,732,2025-01-27 14:05:27,0.0
-14252,1544,2900,-1413,5102,813,2025-01-27 14:05:27,0.0
-14892,1464,2800,-1471,5108,888,2025-01-27 14:05:27,0.0
-14816,1436,2584,-1442,4938,993,2025-01-27 14:05:27,0.0
-14364,1764,2004,-1332,4934,965,2025-01-27 14:05:27,0.0
-14260,2060,1660,-1407,4878,884,2025-01-27 14:05:27,0.0
-12516,312,1372,-1890,4336,707,2025-01-27 14:05:27,0.0
-14536,2384,1420,-1650,4250,587,2025-01-27 14:05:27,0.0
-14644,1792,1464,-1702,3578,284,2025-01-27 14:05:27,0.0
-14884,2296,1336,-1493,3249,200,2025-01-27 14:05:27,0.0
-14432,2316,920,-1404,3091,-12,2025-01-27 14:05:27,0.0
-14184,2512,556,-1247,3177,-57,2025-01-27 14:05:27,0.0
-15136,1076,2388,-1081,3089,-412,2025-01-27 14:05:27,0.0
-13584,1932,1072,-800,3103,-540,2025-01-27 14:05:27,0.0
-13984,2492,1040,-521,3888,-171,2025-01-27 14:05:27,0.0
-13948,1496,968,-38,3138,-348,2025-01-27 14:05:27,0.0
-13616,1156,1056,350,3958,-168,2025-01-27 14:05:27,0.0
-13028,1112,1280,685,5508,-253,2025-01-27 14:05:27,0.0
-12828,1188,744,893,7035,-414,2025-01-27 14:05:27,0.0
-14320,2464,696,983,7927,-614,2025-01-27 14:05:27,0.0
-15160,2420,-1404,869,6297,-961,2025-01-27 14:05:27,0.0
-15652,2512,-1840,974,5256,-1470,2025-01-27 14:05:28,0.0
-15472,2424,-2048,934,4343,-1899,2025-01-27 14:05:28,0.0
-15152,2480,-1928,1008,3483,-2315,2025-01-27 14:05:28,0.0
-14876,2104,-2000,951,2687,-2357,2025-01-27 14:05:28,0.0
-13368,1988,-2780,931,2429,-2174,2025-01-27 14:05:28,0.0
-13680,1044,-1424,786,2683,-2216,2025-01-27 14:05:28,0.0
-14472,768,-936,1215,4001,-2777,2025-01-27 14:05:28,0.0
-14344,672,-2356,1614,5929,-2932,2025-01-27 14:05:28,0.0
-14864,856,-2056,949,5835,-2179,2025-01-27 14:05:28,0.0
-13648,848,-1672,969,5482,-1754,2025-01-27 14:05:28,0.0
-13232,700,-2020,1886,4464,-2085,2025-01-27 14:05:28,0.0
-14212,556,-3040,1895,3566,-1974,2025-01-27 14:05:28,0.0
-13808,732,-3000,1763,2702,-1771,2025-01-27 14:05:28,0.0
-13952,676,-2800,1379,2748,-1654,2025-01-27 14:05:28,0.0
-12848,724,-2712,1285,2364,-1893,2025-01-27 14:05:28,0.0
-11028,224,-2240,1657,2639,-2410,2025-01-27 14:05:28,0.0
-10864,108,-2228,2480,3104,-3353,2025-01-27 14:05:28,0.0
-11400,156,-3240,2543,4162,-3628,2025-01-27 14:05:28,0.0
-11804,4,-3460,2484,5624,-3545,2025-01-27 14:05:28,0.0
-11832,-184,-3800,2676,6223,-3195,2025-01-27 14:05:28,0.0
-11824,-76,-3560,2648,5047,-2550,2025-01-27 14:05:28,0.0
-11472,-308,-3992,2325,2895,-1935,2025-01-27 14:05:28,0.0
-10664,-492,-3800,2011,1119,-1846,2025-01-27 14:05:28,0.0
-10172,-552,-3968,2075,419,-2198,2025-01-27 14:05:28,0.0
-10836,-796,-4104,1700,384,-2255,2025-01-27 14:05:28,0.0
-10620,-736,-4436,1491,258,-1954,2025-01-27 14:05:28,0.0
-10904,-980,-4096,1456,209,-1471,2025-01-27 14:05:28,0.0
-11156,-1292,-3448,1476,-7,-1038,2025-01-27 14:05:28,0.0
-11060,-1268,-4048,1542,-275,-755,2025-01-27 14:05:28,0.0
-11188,-1224,-4108,1390,-332,-588,2025-01-27 14:05:28,0.0
-11528,-1092,-4180,1368,-753,-482,2025-01-27 14:05:28,0.0
-11780,-812,-3824,1302,-1313,-267,2025-01-27 14:05:28,0.0
-11640,-1000,-4548,1077,-2003,142,2025-01-27 14:05:28,0.0
-11288,-1068,-4904,767,-2614,280,2025-01-27 14:05:28,0.0
-11524,-832,-5100,670,-2978,117,2025-01-27 14:05:28,0.0
-11400,-460,-5160,627,-3004,119,2025-01-27 14:05:28,0.0
-10740,-228,-4780,404,-4481,182,2025-01-27 14:05:28,0.0
-9788,-256,-8340,-416,-18143,909,2025-01-27 14:05:28,0.0
-31276,-508,-548,-2548,-13697,1865,2025-01-27 14:05:28,0.0
-9340,-1348,3120,251,-1045,-1432,2025-01-27 14:05:28,0.0
-11408,-948,-2940,465,18,-1930,2025-01-27 14:05:28,
